timestamp,accX,accY,accZ,Subject_ID,Age,Height_cm,Weight_kg
0,-0.45825,-0.07251,-0.87256,1,32,163,97
20,-0.45605,-0.1787099999999999,-0.86035,1,32,163,97
40,-0.45435,-0.2229,-0.84277,1,32,163,97
60,-0.52441,-0.088135,-0.81592,1,32,163,97
80,-0.45361,-0.081787,-0.8696299999999999,1,32,163,97
100,-0.43872,-0.22607,-0.8523,1,32,163,97
120,-0.45166,-0.082275,-0.8737799999999999,1,32,163,97
140,-0.7460899999999999,-0.03125,-0.6191399999999999,1,32,163,97
160,-0.7651399999999999,0.16065,-0.57202,1,32,163,97
180,-0.5127,-0.1057099999999999,-0.84326,1,32,163,97
200,-0.65405,0.177,-0.71265,1,32,163,97
220,-0.5351600000000001,0.4890100000000001,-0.62622,1,32,163,97
240,-0.44385,-0.080078,-0.87036,1,32,163,97
260,-0.52881,0.14966,-0.8085899999999999,1,32,163,97
280,-0.54468,-0.125,-0.80225,1,32,163,97
300,-0.45947,-0.18237,-0.8466799999999999,1,32,163,97
320,-0.47681,-0.093994,-0.8449700000000001,1,32,163,97
340,-0.47876,-0.096436,-0.8469200000000001,1,32,163,97
360,-0.52515,-0.12744,-0.8200700000000001,1,32,163,97
380,-0.4462899999999999,-0.075684,-0.875,1,32,163,97
400,-0.45703,-0.22705,-0.84888,1,32,163,97
420,-0.50293,0.46655,-0.6765100000000001,1,32,163,97
440,-0.67188,0.094971,-0.70727,1,32,163,97
460,-0.67285,0.2063,-0.62329,1,32,163,97
480,-0.7048300000000001,0.088379,-0.54443,1,32,163,97
500,-0.45166,-0.22607,-0.8557100000000001,1,32,163,97
520,-0.4572699999999999,-0.21509,-0.8513200000000001,1,32,163,97
540,-0.5192899999999999,-0.11084,-0.8261700000000001,1,32,163,97
560,-0.45874,-0.22583,-0.83935,1,32,163,97
580,-0.52368,-0.10645,-0.81885,1,32,163,97
600,-0.46118,0.5227,-0.66992,1,32,163,97
620,-0.54199,0.02124,-0.81201,1,32,163,97
640,-0.45825,-0.2304699999999999,-0.8535200000000001,1,32,163,97
660,-0.6687,0.36279,-0.5898399999999999,1,32,163,97
680,-0.62329,0.013184,-0.75293,1,32,163,97
700,-0.5398,0.36621,-0.6875,1,32,163,97
720,-0.56152,0.50366,-0.61987,1,32,163,97
740,-0.44995,-0.084473,-0.8757299999999999,1,32,163,97
760,-0.56372,0.038818,-0.78394,1,32,163,97
780,-0.65772,0.16895,-0.70727,1,32,163,97
800,-0.51685,-0.11108,-0.81274,1,32,163,97
820,-0.45386,-0.22534,-0.8537600000000001,1,32,163,97
840,-0.4585,-0.22266,-0.8449700000000001,1,32,163,97
860,-0.4545899999999999,-0.22632,-0.85449,1,32,163,97
880,-0.44946,-0.078613,-0.875,1,32,163,97
900,-0.45093,-0.2273,-0.8449700000000001,1,32,163,97
920,-0.45313,-0.22119,-0.84839,1,32,163,97
940,-0.52295,0.23999,-0.83935,1,32,163,97
960,-0.6359899999999999,0.13355,-0.73242,1,32,163,97
980,-0.45166,-0.086914,-0.87231,1,32,163,97
1000,-0.51221,-0.12109,-0.81421,1,32,163,97
1020,-0.51685,-0.11304,-0.83594,1,32,163,97
1040,-0.47681,-0.0976559999999999,-0.86035,1,32,163,97
1060,-0.52515,-0.1140099999999999,-0.8337399999999999,1,32,163,97
1080,-0.45557,-0.23023,-0.83911,1,32,163,97
1100,-0.65723,0.34155,-0.68066,1,32,163,97
1120,-0.4458,-0.087158,-0.87549,1,32,163,97
1140,-0.61523,0.39331,-0.67188,1,32,163,97
1160,-0.6272,0.32446,-0.65112,1,32,163,97
1180,-0.53198,-0.0976559999999999,-0.8222700000000001,1,32,163,97
1200,-0.70605,0.039062,-0.6984899999999999,1,32,163,97
1220,-0.50635,-0.11572,-0.8322700000000001,1,32,163,97
1240,-0.52417,-0.080811,-0.8183600000000001,1,32,163,97
1260,-0.48438,0.51221,-0.66089,1,32,163,97
1280,-0.7048300000000001,0.10083,-0.62231,1,32,163,97
1300,-0.68213,-0.011963,-0.72388,1,32,163,97
1320,-0.4458,-0.2241199999999999,-0.8452200000000001,1,32,163,97
1340,-0.59863,0.37476,-0.64917,1,32,163,97
1360,-0.66162,-0.0622559999999999,-0.74902,1,32,163,97
1380,-0.44873,-0.22388,-0.84473,1,32,163,97
1400,-0.5227,-0.1093799999999999,-0.81958,1,32,163,97
1420,-0.5683600000000001,0.09375,-0.72534,1,32,163,97
1440,-0.62036,0.37622,-0.63281,1,32,163,97
1460,-0.51172,-0.0976559999999999,-0.83057,1,32,163,97
1480,-0.48315,0.42188,-0.73511,1,32,163,97
1500,-0.48584,0.24756,-0.81006,1,32,163,97
1520,-0.51782,-0.10864,-0.81738,1,32,163,97
1540,-0.8269,0.003418,-0.54077,1,32,163,97
1560,-0.79175,0.10962,-0.52148,1,32,163,97
1580,-0.45898,-0.22559,-0.84473,1,32,163,97
1600,-0.7028800000000001,0.16455,-0.6420899999999999,1,32,163,97
1620,-0.4418899999999999,-0.2265599999999999,-0.84741,1,32,163,97
1640,-0.44922,-0.077637,-0.86719,1,32,163,97
1660,-0.45483,-0.22315,-0.84424,1,32,163,97
1680,-0.45166,-0.079346,-0.8757299999999999,1,32,163,97
1700,-0.58423,0.27222,-0.7338899999999999,1,32,163,97
1720,-0.67871,0.37427,-0.56323,1,32,163,97
1740,-0.44605,-0.071045,-0.8613299999999999,1,32,163,97
1760,-1.0308,0.08667,-0.14502,1,32,163,97
1780,-0.44482,-0.077637,-0.86426,1,32,163,97
1800,-0.5957,0.4978,-0.59082,1,32,163,97
1820,-0.45215,-0.078613,-0.8715799999999999,1,32,163,97
1840,-0.5769,0.15967,-0.7709999999999999,1,32,163,97
1860,-0.55908,0.46973,-0.6408699999999999,1,32,163,97
1880,-0.4523899999999999,-0.2273,-0.8535200000000001,1,32,163,97
1900,-0.5158699999999999,-0.1120599999999999,-0.82544,1,32,163,97
1920,-0.4479999999999999,-0.082275,-0.87402,1,32,163,97
1940,-0.45825,-0.18188,-0.85254,1,32,163,97
1960,-0.56592,0.0979,-0.80835,1,32,163,97
1980,-0.4816899999999999,-0.104,-0.84473,1,32,163,97
2000,-0.81152,0.033691,-0.52344,1,32,163,97
2020,-0.52759,-0.081299,-0.8242200000000001,1,32,163,97
2040,-0.53833,-0.084229,-0.8125,1,32,163,97
2060,-0.49341,-0.12646,-0.8356899999999999,1,32,163,97
2080,-0.5603,0.47095,-0.65454,1,32,163,97
2100,-0.45337,-0.19019,-0.8491200000000001,1,32,163,97
2120,-0.8945299999999999,0.017822,-0.49316,1,32,163,97
2140,-0.5112300000000001,-0.11035,-0.82739,1,32,163,97
2160,-0.44385,-0.0852049999999999,-0.875,1,32,163,97
2180,-0.53076,-0.088379,-0.82178,1,32,163,97
2200,-0.26196,0.35376,-0.71509,1,32,163,97
2220,-0.6084,0.1057099999999999,-0.72485,1,32,163,97
2240,-0.53149,-0.091309,-0.8222700000000001,1,32,163,97
2260,-0.45313,-0.22266,-0.85645,1,32,163,97
2280,-0.51221,-0.1023,-0.81567,1,32,163,97
2300,-0.59912,0.45996,-0.61621,1,32,163,97
2320,-0.61645,0.37085,-0.62231,1,32,163,97
2340,-0.4523899999999999,-0.0820309999999999,-0.87915,1,32,163,97
2360,-0.47485,-0.096924,-0.8584,1,32,163,97
2380,-0.45752,-0.1831,-0.8557100000000001,1,32,163,97
2400,-0.4541,-0.082275,-0.87476,1,32,163,97
2420,-0.52954,-0.1084,-0.8313,1,32,163,97
2440,-0.4511699999999999,-0.17822,-0.8554700000000001,1,32,163,97
2460,-0.51685,-0.099854,-0.82153,1,32,163,97
2480,-0.6601600000000001,0.24878,-0.7085,1,32,163,97
2500,-0.45776,-0.076904,-0.87036,1,32,163,97
2520,-0.52563,-0.087646,-0.82031,1,32,163,97
2540,-0.61328,0.32739,-0.66382,1,32,163,97
2560,-0.47607,-0.10181,-0.84326,1,32,163,97
2580,-0.5422399999999999,0.008545,-0.82886,1,32,163,97
2600,-0.45337,-0.18213,-0.85449,1,32,163,97
2620,-0.7673300000000001,0.031494,-0.6137699999999999,1,32,163,97
2640,-0.53296,-0.12622,-0.823,1,32,163,97
2660,-0.52881,-0.09668,-0.81543,1,32,163,97
2680,-0.65649,-0.007812,-0.72705,1,32,163,97
2700,-0.49194,-0.104,-0.8693799999999999,1,32,163,97
2720,-0.52246,-0.091553,-0.8269,1,32,163,97
2740,-0.53003,-0.104,-0.8615700000000001,1,32,163,97
2760,-0.4484899999999999,-0.18652,-0.86719,1,32,163,97
2780,-0.44311,-0.22583,-0.8571799999999999,1,32,163,97
2800,-0.51294,-0.091797,-0.8291,1,32,163,97
2820,-0.60596,0.37988,-0.65332,1,32,163,97
2840,-0.5271,0.50024,-0.6582,1,32,163,97
2860,-0.45776,-0.1789599999999999,-0.84985,1,32,163,97
2880,-0.45264,-0.081055,-0.8737799999999999,1,32,163,97
2900,-0.45605,-0.1831,-0.86035,1,32,163,97
2920,-0.46118,-0.18237,-0.84424,1,32,163,97
2940,-0.45679,-0.23023,-0.8554700000000001,1,32,163,97
2960,-0.53076,-0.083008,-0.81567,1,32,163,97
2980,-0.52808,-0.088135,-0.81226,1,32,163,97
3000,-0.65942,0.0856929999999999,-0.68701,1,32,163,97
3020,-0.5766600000000001,0.12891,-0.7287600000000001,1,32,163,97
3040,-0.4541,-0.22485,-0.84424,1,32,163,97
3060,-0.47681,-0.093994,-0.8562,1,32,163,97
3080,-0.5752,0.015869,-0.8654799999999999,1,32,163,97
3100,-0.53565,-0.088867,-0.82275,1,32,163,97
3120,-0.4658199999999999,-0.071289,-0.85596,1,32,163,97
3140,-0.49072,0.20703,-0.8728,1,32,163,97
3160,-0.45752,-0.22559,-0.85303,1,32,163,97
3180,-0.52832,-0.079834,-0.8388700000000001,1,32,163,97
3200,-0.43872,-0.22607,-0.8523,1,32,163,97
3220,-0.53174,-0.12354,-0.8183600000000001,1,32,163,97
3240,-0.45435,-0.082764,-0.86377,1,32,163,97
3260,-0.5161100000000001,-0.11523,-0.81445,1,32,163,97
3280,-0.53149,-0.0910639999999999,-0.82373,2,51,181,80
3300,-0.47217,-0.095459,-0.8652299999999999,2,51,181,80
3320,-0.55078,0.017578,-0.8015100000000001,2,51,181,80
3340,-0.50879,-0.11304,-0.83447,2,51,181,80
3360,-0.5351600000000001,-0.092285,-0.8222700000000001,2,51,181,80
3380,-0.45288,-0.080078,-0.87134,2,51,181,80
3400,-0.54883,0.0832519999999999,-0.80518,2,51,181,80
3420,-0.4597199999999999,-0.2243699999999999,-0.85303,2,51,181,80
3440,-0.45825,-0.077637,-0.8728,2,51,181,80
3460,-0.66797,0.1294,-0.68848,2,51,181,80
3480,-0.75488,0.037842,-0.5764199999999999,2,51,181,80
3500,-0.44702,-0.071045,-0.8652299999999999,2,51,181,80
3520,-0.45386,-0.0773929999999999,-0.86108,2,51,181,80
3540,-0.65942,0.10742,-0.71216,2,51,181,80
3560,-0.5354,0.011719,-0.81738,2,51,181,80
3580,-0.45508,-0.078125,-0.8784200000000001,2,51,181,80
3600,-0.63648,0.094727,-0.70605,2,51,181,80
3620,-0.53003,-0.0852049999999999,-0.8259299999999999,2,51,181,80
3640,-0.51685,-0.084961,-0.82129,2,51,181,80
3660,-0.45142,-0.23218,-0.8540000000000001,2,51,181,80
3680,-0.63159,0.0737299999999999,-0.75513,2,51,181,80
3700,-0.45361,-0.19214,-0.87036,2,51,181,80
3720,-0.53223,-0.12134,-0.8183600000000001,2,51,181,80
3740,-0.45679,-0.076172,-0.8667,2,51,181,80
3760,-0.52222,-0.079346,-0.8266600000000001,2,51,181,80
3780,-0.81665,0.023438,-0.51025,2,51,181,80
3800,-0.68823,-0.01123,-0.73633,2,51,181,80
3820,-0.52466,-0.10693,-0.81958,2,51,181,80
3840,-0.5734899999999999,0.10205,-0.71558,2,51,181,80
3860,-0.64673,-0.17114,-0.7346199999999999,2,51,181,80
3880,-0.53174,-0.092041,-0.8269,2,51,181,80
3900,-0.53223,-0.12134,-0.8183600000000001,2,51,181,80
3920,-0.4572699999999999,-0.22925,-0.8486299999999999,2,51,181,80
3940,-0.51953,-0.10693,-0.8261700000000001,2,51,181,80
3960,-0.61206,0.35156,-0.64722,2,51,181,80
3980,-0.53247,-0.10474,-0.8452200000000001,2,51,181,80
4000,-0.6503899999999999,0.25,-0.6853,2,51,181,80
4020,-0.47436,-0.0910639999999999,-0.8632799999999999,2,51,181,80
4040,-0.47803,-0.093994,-0.8493700000000001,2,51,181,80
4060,-0.45215,-0.079346,-0.87549,2,51,181,80
4080,-0.5776399999999999,0.036133,-0.7641600000000001,2,51,181,80
4100,-0.6079100000000001,0.09668,-0.7592800000000001,2,51,181,80
4120,-0.45068,-0.22583,-0.8493700000000001,2,51,181,80
4140,-0.54443,0.059082,-0.81714,2,51,181,80
4160,-0.6792,0.17749,-0.70093,2,51,181,80
4180,-0.5293,-0.11108,-0.80835,2,51,181,80
4200,-0.5170899999999999,-0.1084,-0.8234899999999999,2,51,181,80
4220,-0.70386,0.17114,-0.64795,2,51,181,80
4240,-0.52808,-0.084961,-0.8244600000000001,2,51,181,80
4260,-0.45605,-0.22339,-0.8523,2,51,181,80
4280,-0.45508,-0.074951,-0.87305,2,51,181,80
4300,-0.57422,0.40308,-0.6521,2,51,181,80
4320,-0.75415,0.45898,-0.3252,2,51,181,80
4340,-0.50171,0.43896,-0.7048300000000001,2,51,181,80
4360,-0.60327,0.37573,-0.64844,2,51,181,80
4380,-0.4563,-0.18677,-0.85767,2,51,181,80
4400,-0.52417,-0.10156,-0.84619,2,51,181,80
4420,-0.59692,0.4724100000000001,-0.66162,2,51,181,80
4440,-0.64282,0.092041,-0.72754,2,51,181,80
4460,-0.4502,-0.2243699999999999,-0.85278,2,51,181,80
4480,-0.5192899999999999,-0.1079099999999999,-0.82788,2,51,181,80
4500,-0.81348,0.031494,-0.53565,2,51,181,80
4520,-0.5566399999999999,0.022217,-0.8044399999999999,2,51,181,80
4540,-0.52832,-0.082275,-0.8295899999999999,2,51,181,80
4560,-0.51904,-0.11035,-0.8303200000000001,2,51,181,80
4580,-0.53296,-0.095459,-0.81177,2,51,181,80
4600,-0.45825,-0.19141,-0.85693,2,51,181,80
4620,-0.5271,-0.092285,-0.81494,2,51,181,80
4640,-0.58618,0.4411600000000001,-0.63135,2,51,181,80
4660,-0.63403,0.12549,-0.7329100000000001,2,51,181,80
4680,-0.45386,-0.18799,-0.85645,2,51,181,80
4700,-0.44898,-0.2243699999999999,-0.8405799999999999,2,51,181,80
4720,-0.64551,0.30713,-0.63648,2,51,181,80
4740,-0.66992,0.38281,-0.64185,2,51,181,80
4760,-0.45386,-0.085938,-0.875,2,51,181,80
4780,-0.45557,-0.2229,-0.8523,2,51,181,80
4800,-0.71533,0.040527,-0.6682100000000001,2,51,181,80
4820,-0.51367,-0.11646,-0.8425299999999999,2,51,181,80
4840,-0.48413,-0.071533,-0.85864,2,51,181,80
4860,-0.4504399999999999,-0.22705,-0.84473,2,51,181,80
4880,-0.7146,0.15185,-0.6228,2,51,181,80
4900,-0.63403,0.32813,-0.65552,2,51,181,80
4920,-0.82715,0.043457,-0.6311,2,51,181,80
4940,-0.60718,0.37549,-0.63672,2,51,181,80
4960,-0.50732,-0.096924,-0.81909,2,51,181,80
4980,-0.54419,0.4375,-0.69385,2,51,181,80
5000,-0.60132,0.37622,-0.64868,2,51,181,80
5020,-0.52685,-0.0815429999999999,-0.81958,2,51,181,80
5040,-0.48755,-0.0820309999999999,-0.8476600000000001,2,51,181,80
5060,-0.52368,-0.080566,-0.8239799999999999,2,51,181,80
5080,-0.55835,-0.009277,-0.8630399999999999,2,51,181,80
5100,-0.58911,0.21118,-0.7338899999999999,2,51,181,80
5120,-0.7390100000000001,0.04126,-0.62671,2,51,181,80
5140,-0.6604,0.097168,-0.70068,2,51,181,80
5160,-0.56934,0.47217,-0.6709,2,51,181,80
5180,-0.45581,-0.086914,-0.8706,2,51,181,80
5200,-0.57227,0.48975,-0.61719,2,51,181,80
5220,-0.62134,0.28174,-0.65478,2,51,181,80
5240,-0.4418899999999999,-0.22388,-0.8425299999999999,2,51,181,80
5260,-0.4511699999999999,-0.074219,-0.8728,2,51,181,80
5280,-0.59644,0.20264,-0.7981,2,51,181,80
5300,-0.45093,-0.22632,-0.8396,2,51,181,80
5320,-0.73047,0.038818,-0.66309,2,51,181,80
5340,-0.5422399999999999,0.52051,-0.5744600000000001,2,51,181,80
5360,-0.45361,-0.22583,-0.8571799999999999,2,51,181,80
5380,-0.5161100000000001,-0.1101099999999999,-0.8266600000000001,2,51,181,80
5400,-0.63135,0.13818,-0.72388,2,51,181,80
5420,-0.6272,0.17139,-0.72241,2,51,181,80
5440,-0.51465,-0.10474,-0.83716,2,51,181,80
5460,-0.52881,-0.087891,-0.8164100000000001,2,51,181,80
5480,-0.51831,0.032715,-0.82935,2,51,181,80
5500,-0.45313,-0.2251,-0.8493700000000001,2,51,181,80
5520,-0.5170899999999999,-0.1140099999999999,-0.84009,2,51,181,80
5540,-0.5376,0.38135,-0.7033699999999999,2,51,181,80
5560,-0.68115,0.20239,-0.6704100000000001,2,51,181,80
5580,-0.51367,-0.10889,-0.8252,2,51,181,80
5600,-0.55518,0.055176,-0.79932,2,51,181,80
5620,-0.44556,-0.21777,-0.85425,2,51,181,80
5640,-0.4511699999999999,-0.22998,-0.84815,2,51,181,80
5660,-0.4523899999999999,-0.22998,-0.8405799999999999,2,51,181,80
5680,-0.65576,0.35425,-0.59399,2,51,181,80
5700,-0.5483399999999999,0.48657,-0.6355,2,51,181,80
5720,-0.45361,-0.077637,-0.8584,2,51,181,80
5740,-0.77246,0.16089,-0.60864,2,51,181,80
5760,-0.44971,-0.078857,-0.8691399999999999,2,51,181,80
5780,-0.4541,-0.084961,-0.87305,2,51,181,80
5800,-0.53125,-0.086914,-0.82178,2,51,181,80
5820,-0.6835899999999999,0.19751,-0.65015,2,51,181,80
5840,-0.45264,-0.18066,-0.85278,2,51,181,80
5860,-0.4707,-0.1789599999999999,-0.80029,2,51,181,80
5880,-0.47803,-0.094482,-0.8457,2,51,181,80
5900,-0.51489,0.42334,-0.69409,2,51,181,80
5920,-0.4541,-0.22632,-0.84888,2,51,181,80
5940,-0.70605,0.33911,-0.58618,2,51,181,80
5960,-0.52808,-0.12622,-0.8198200000000001,2,51,181,80
5980,-0.5170899999999999,-0.089844,-0.8364299999999999,2,51,181,80
6000,-0.71606,0.041016,-0.7026399999999999,2,51,181,80
6020,-0.6582,0.004395,-0.69922,2,51,181,80
6040,-0.52222,-0.13477,-0.7771,2,51,181,80
6060,-0.47046,-0.088867,-0.8574200000000001,2,51,181,80
6080,-0.52905,-0.083008,-0.82178,2,51,181,80
6100,-0.52173,-0.11377,-0.82715,2,51,181,80
6120,-0.5166,-0.1023,-0.82373,2,51,181,80
6140,-0.44873,-0.2268099999999999,-0.8547399999999999,2,51,181,80
6160,-0.52612,-0.087646,-0.81616,2,51,181,80
6180,-0.45093,-0.2243699999999999,-0.8532700000000001,2,51,181,80
6200,-0.5151399999999999,-0.11255,-0.83862,3,38,171,61
6220,-0.57813,0.42432,-0.66309,3,38,171,61
6240,-0.4504399999999999,-0.22144,-0.84326,3,38,171,61
6260,-0.44995,-0.22168,-0.8510700000000001,3,38,171,61
6280,-0.52466,-0.077637,-0.8186,3,38,171,61
6300,-0.45532,-0.18457,-0.8547399999999999,3,38,171,61
6320,-0.52173,-0.095215,-0.8300799999999999,3,38,171,61
6340,-0.52368,0.52173,-0.6716300000000001,3,38,171,61
6360,-0.61816,0.10693,-0.7417,3,38,171,61
6380,-0.4963399999999999,-0.12183,-0.8327600000000001,3,38,171,61
6400,-0.5786100000000001,0.1001,-0.77295,3,38,171,61
6420,-0.45679,-0.18579,-0.86475,3,38,171,61
6440,-0.6731,0.12427,-0.67993,3,38,171,61
6460,-0.54419,0.47998,-0.6411100000000001,3,38,171,61
6480,-0.5393100000000001,0.095215,-0.80469,3,38,171,61
6500,-0.59033,0.11865,-0.78223,3,38,171,61
6520,-0.4504399999999999,-0.22778,-0.8513200000000001,3,38,171,61
6540,-0.62549,0.4375,-0.6762699999999999,3,38,171,61
6560,-0.52759,0.49512,-0.6416,3,38,171,61
6580,-0.6672399999999999,0.35254,-0.59717,3,38,171,61
6600,-0.55176,0.48413,-0.6308600000000001,3,38,171,61
6620,-0.52295,-0.1062,-0.8164100000000001,3,38,171,61
6640,-0.45215,-0.1872599999999999,-0.86426,3,38,171,61
6660,-0.44482,-0.072754,-0.86035,3,38,171,61
6680,-0.44873,-0.2273,-0.8598600000000001,3,38,171,61
6700,-0.53027,-0.13159,-0.8103,3,38,171,61
6720,-0.5100100000000001,-0.1142599999999999,-0.8317899999999999,3,38,171,61
6740,-0.6704100000000001,0.15723,-0.6731,3,38,171,61
6760,-0.62012,0.12183,-0.74707,3,38,171,61
6780,-0.56201,0.053955,-0.82129,3,38,171,61
6800,-0.65063,-0.067139,-0.71777,3,38,171,61
6820,-0.52588,-0.11035,-0.82739,3,38,171,61
6840,-0.53003,-0.083984,-0.81812,3,38,171,61
6860,-0.4755899999999999,-0.091309,-0.85498,3,38,171,61
6880,-0.6157199999999999,0.27881,-0.65552,3,38,171,61
6900,-0.48145,-0.098633,-0.8562,3,38,171,61
6920,-0.62427,0.15552,-0.7290000000000001,3,38,171,61
6940,-0.69531,0.11694,-0.6731,3,38,171,61
6960,-0.5192899999999999,-0.11182,-0.82544,3,38,171,61
6980,-0.6369600000000001,0.30566,-0.72583,3,38,171,61
7000,-0.72168,-0.054932,-0.7102,3,38,171,61
7020,-0.62573,0.33545,-0.65381,3,38,171,61
7040,-0.65308,0.38867,-0.6169399999999999,3,38,171,61
7060,-0.71435,0.010498,-0.66968,3,38,171,61
7080,-0.5473600000000001,0.49097,-0.62769,3,38,171,61
7100,-0.44751,-0.075928,-0.8701200000000001,3,38,171,61
7120,-0.45581,-0.22705,-0.8398399999999999,3,38,171,61
7140,-0.45703,-0.0856929999999999,-0.8811,3,38,171,61
7160,-0.52246,-0.1052299999999999,-0.8337399999999999,3,38,171,61
7180,-0.52856,-0.08374,-0.8183600000000001,3,38,171,61
7200,-0.53076,-0.08252,-0.8234899999999999,3,38,171,61
7220,-0.6403800000000001,-0.063232,-0.73193,3,38,171,61
7240,-0.71582,0.14966,-0.63403,3,38,171,61
7260,-0.4597199999999999,-0.17969,-0.8491200000000001,3,38,171,61
7280,-0.68945,0.028076,-0.68848,3,38,171,61
7300,-0.52954,-0.077637,-0.8266600000000001,3,38,171,61
7320,-0.53003,-0.092285,-0.81885,3,38,171,61
7340,-0.45776,-0.077148,-0.89722,3,38,171,61
7360,-0.55908,0.41724,-0.64355,3,38,171,61
7380,-0.8239799999999999,0.17407,-0.44092,3,38,171,61
7400,-0.67578,0.081055,-0.68872,3,38,171,61
7420,-0.45386,-0.22021,-0.8422799999999999,3,38,171,61
7440,-0.521,-0.10181,-0.83057,3,38,171,61
7460,-0.63281,0.30811,-0.74878,3,38,171,61
7480,-0.521,-0.10693,-0.8313,3,38,171,61
7500,-0.45581,-0.18799,-0.85254,3,38,171,61
7520,-0.45264,-0.081299,-0.87256,3,38,171,61
7540,-0.47485,-0.091309,-0.85034,3,38,171,61
7560,-0.55908,-0.10645,-0.80542,3,38,171,61
7580,-0.53149,-0.089844,-0.8147,3,38,171,61
7600,-0.52344,-0.12915,-0.8244600000000001,3,38,171,61
7620,-0.53418,0.46997,-0.6450199999999999,3,38,171,61
7640,-0.5092800000000001,-0.086426,-0.8342299999999999,3,38,171,61
7660,-0.5092800000000001,-0.10864,-0.82983,3,38,171,61
7680,-0.44678,-0.1731,-0.84888,3,38,171,61
7700,-0.6604,-0.015381,-0.71118,3,38,171,61
7720,-0.45703,-0.18286,-0.85693,3,38,171,61
7740,-0.56079,0.46143,-0.6389199999999999,3,38,171,61
7760,-0.46411,-0.18774,-0.8669399999999999,3,38,171,61
7780,-0.6401399999999999,0.083496,-0.75464,3,38,171,61
7800,-0.53662,0.43726,-0.66406,3,38,171,61
7820,-0.72046,0.0329589999999999,-0.65625,3,38,171,61
7840,-0.54199,0.02124,-0.81201,3,38,171,61
7860,-0.43945,-0.081787,-0.8588899999999999,3,38,171,61
7880,-0.44605,-0.2251,-0.84277,3,38,171,61
7900,-0.44702,-0.081055,-0.87476,3,38,171,61
7920,-0.48315,-0.099121,-0.8476600000000001,3,38,171,61
7940,-0.53003,-0.12646,-0.8291,3,38,171,61
7960,-0.53101,-0.087646,-0.81714,3,38,171,61
7980,-0.45605,-0.2285199999999999,-0.8535200000000001,3,38,171,61
8000,-0.6687,0.36279,-0.5898399999999999,3,38,171,61
8020,-0.70557,0.25537,-0.61792,3,38,171,61
8040,-0.47339,-0.09375,-0.8584,3,38,171,61
8060,-0.5219699999999999,-0.083984,-0.82178,3,38,171,61
8080,-0.5293,-0.086426,-0.8200700000000001,3,38,171,61
8100,-0.50073,-0.099609,-0.8281299999999999,3,38,171,61
8120,-0.4943899999999999,-0.09668,-0.82105,3,38,171,61
8140,-0.44678,-0.084229,-0.8640100000000001,3,38,171,61
8160,-0.53247,-0.095703,-0.8291,3,38,171,61
8180,-0.50855,0.097412,-0.8361799999999999,3,38,171,61
8200,-0.61963,0.3501,-0.63721,3,38,171,61
8220,-0.4458,-0.0820309999999999,-0.8689,3,38,171,61
8240,-0.6967800000000001,0.20361,-0.61865,3,38,171,61
8260,-0.45703,-0.22095,-0.84741,3,38,171,61
8280,-0.47461,-0.092529,-0.8613299999999999,3,38,171,61
8300,-0.4563,-0.22559,-0.85083,3,38,171,61
8320,-0.45508,-0.086426,-0.87549,3,38,171,61
8340,-0.4729,-0.0971679999999999,-0.8571799999999999,3,38,171,61
8360,-0.45386,-0.078125,-0.87524,3,38,171,61
8380,-0.62549,0.041016,-0.7731899999999999,3,38,171,61
8400,-0.65283,0.20239,-0.7026399999999999,3,38,171,61
8420,-0.45483,-0.22876,-0.8457,3,38,171,61
8440,-0.5415,0.5119600000000001,-0.63062,3,38,171,61
8460,-0.46899,0.076416,-0.8706,3,38,171,61
8480,-0.50659,0.53735,-0.65625,3,38,171,61
8500,-0.50195,0.43237,-0.70727,3,38,171,61
8520,-0.61475,0.33765,-0.6682100000000001,3,38,171,61
8540,-0.5161100000000001,-0.11231,-0.8242200000000001,3,38,171,61
8560,-0.45679,-0.1870099999999999,-0.8486299999999999,3,38,171,61
8580,-0.53296,0.4870600000000001,-0.64185,3,38,171,61
8600,-0.83447,0.019531,-0.5058600000000001,3,38,171,61
8620,-0.6721199999999999,-0.17725,-0.8891600000000001,3,38,171,61
8640,-0.5271,-0.10645,-0.82886,3,38,171,61
8660,-0.65796,0.34253,-0.63452,3,38,171,61
8680,-0.4511699999999999,-0.21704,-0.8457,3,38,171,61
8700,-0.45264,-0.22241,-0.8491200000000001,3,38,171,61
8720,-0.4482399999999999,-0.22705,-0.85254,3,38,171,61
8740,-0.58032,0.010742,-0.78272,3,38,171,61
8760,-0.47217,-0.22485,-0.87476,3,38,171,61
8780,-0.4484899999999999,-0.077637,-0.86841,3,38,171,61
8800,-0.4836399999999999,-0.090088,-0.8598600000000001,3,38,171,61
8820,-0.45068,-0.0778809999999999,-0.87256,3,38,171,61
8840,-0.6088899999999999,0.38843,-0.64844,3,38,171,61
8860,-0.50952,-0.092773,-0.8335,3,38,171,61
8880,-0.62964,0.4436,-0.54907,3,38,171,61
8900,-0.66528,0.28833,-0.6157199999999999,3,38,171,61
8920,-0.59717,0.37891,-0.65625,3,38,171,61
8940,-0.52637,-0.079346,-0.82544,3,38,171,61
8960,-0.52222,-0.10645,-0.8291,3,38,171,61
8980,-0.4502,-0.079834,-0.8676799999999999,3,38,171,61
9000,-0.4504399999999999,-0.2268099999999999,-0.8479,3,38,171,61
9020,-0.44775,-0.22315,-0.8584,3,38,171,61
9040,-0.62256,0.092041,-0.70605,3,38,171,61
9060,-0.45093,-0.2268099999999999,-0.84375,3,38,171,61
9080,-0.94165,0.084717,-0.46606,3,38,171,61
9100,-0.44922,-0.082764,-0.86987,3,38,171,61
9120,-0.48413,-0.071533,-0.85864,3,38,171,61
9140,-0.53491,0.49854,-0.62647,3,38,171,61
9160,-0.4545899999999999,-0.2229,-0.8584,3,38,171,61
9180,-0.52368,-0.1062,-0.82153,3,38,171,61
9200,-0.50757,-0.1049799999999999,-0.8259299999999999,3,38,171,61
9220,-0.45703,-0.23145,-0.84985,3,38,171,61
9240,-0.52368,-0.1106,-0.81958,3,38,171,61
9260,-0.4563,0.29736,-0.7963899999999999,3,38,171,61
9280,-0.5542,0.38745,-0.71802,3,38,171,61
9300,-0.6994600000000001,0.22363,-0.63208,3,38,171,61
9320,-0.47607,-0.092529,-0.85449,3,38,171,61
9340,-0.65137,0.41968,-0.51782,3,38,171,61
9360,-0.45923,-0.1792,-0.84815,3,38,171,61
9380,-0.61865,-0.017822,-0.77441,3,38,171,61
9400,-0.521,-0.11523,-0.8403299999999999,3,38,171,61
9420,-0.6108399999999999,0.34619,-0.67798,3,38,171,61
9440,-0.479,-0.0910639999999999,-0.8579100000000001,3,38,171,61
9460,-0.74048,0.28052,-0.5371100000000001,3,38,171,61
9480,-0.4511699999999999,-0.074219,-0.86841,3,38,171,61
9500,-0.45483,-0.22778,-0.8466799999999999,3,38,171,61
9520,-0.52588,-0.12646,-0.81763,3,38,171,61
9540,-0.7338899999999999,0.20044,-0.43799,3,38,171,61
9560,-0.45215,-0.077148,-0.87085,3,38,171,61
9580,-0.83325,0.007568,-0.4751,3,38,171,61
9600,-0.4523899999999999,-0.18286,-0.8547399999999999,3,38,171,61
9620,-0.53149,-0.1272,-0.82544,3,38,171,61
9640,-0.45605,-0.22315,-0.8444799999999999,3,38,171,61
9660,-0.33057,0.082275,-0.92456,4,41,160,76
9680,-0.45264,-0.2251,-0.8425299999999999,4,41,160,76
9700,-0.55347,0.49731,-0.62915,4,41,160,76
9720,-0.53442,-0.0947269999999999,-0.8200700000000001,4,41,160,76
9740,-0.4572699999999999,-0.21509,-0.8513200000000001,4,41,160,76
9760,-0.55933,0.37305,-0.7268100000000001,4,41,160,76
9780,-0.52661,-0.10864,-0.8418,4,41,160,76
9800,-0.45337,-0.23364,-0.8552299999999999,4,41,160,76
9820,-0.48511,-0.1008299999999999,-0.8479,4,41,160,76
9840,-0.53223,-0.096924,-0.82544,4,41,160,76
9860,-0.52783,-0.1355,-0.8269,4,41,160,76
9880,-0.4504399999999999,-0.22705,-0.84473,4,41,160,76
9900,-0.4519,-0.086914,-0.8784200000000001,4,41,160,76
9920,-0.65845,0.098877,-0.7168,4,41,160,76
9940,-0.60718,0.10303,-0.7600100000000001,4,41,160,76
9960,-0.6423300000000001,-0.007568,-0.74243,4,41,160,76
9980,-0.48267,-0.087891,-0.85425,4,41,160,76
10000,-0.69312,0.19605,-0.66846,4,41,160,76
10020,-0.4563,-0.22461,-0.83691,4,41,160,76
10040,-0.59058,0.34839,-0.6765100000000001,4,41,160,76
10060,-0.4523899999999999,-0.17798,-0.85449,4,41,160,76
10080,-0.45483,-0.2185099999999999,-0.8449700000000001,4,41,160,76
10100,-0.5878899999999999,0.47095,-0.6030300000000001,4,41,160,76
10120,-0.52588,-0.11963,-0.8479,4,41,160,76
10140,-0.45313,-0.075684,-0.8808600000000001,4,41,160,76
10160,-0.4763199999999999,-0.096436,-0.8557100000000001,4,41,160,76
10180,-0.52954,-0.081299,-0.75903,4,41,160,76
10200,-0.52661,-0.10864,-0.8418,4,41,160,76
10220,-0.66284,0.3186,-0.63062,4,41,160,76
10240,-0.6438,0.09082,-0.7307100000000001,4,41,160,76
10260,-0.4565399999999999,-0.18237,-0.85083,4,41,160,76
10280,-0.47998,-0.096924,-0.84644,4,41,160,76
10300,-0.45947,-0.17969,-0.85034,4,41,160,76
10320,-0.5271,-0.12354,-0.82324,4,41,160,76
10340,-0.52295,-0.1189,-0.8085899999999999,4,41,160,76
10360,-0.53809,0.23389,-0.7702600000000001,4,41,160,76
10380,-0.62573,0.30859,-0.65356,4,41,160,76
10400,-0.50952,-0.092773,-0.8335,4,41,160,76
10420,-0.34155,0.3938,-0.75122,4,41,160,76
10440,-0.59839,0.37402,-0.65869,4,41,160,76
10460,-0.45605,-0.18774,-0.85864,4,41,160,76
10480,-0.53149,-0.089844,-0.8147,4,41,160,76
10500,-0.5161100000000001,-0.12036,-0.8342299999999999,4,41,160,76
10520,-0.45313,-0.2285199999999999,-0.8364299999999999,4,41,160,76
10540,-0.5173300000000001,-0.098389,-0.8317899999999999,4,41,160,76
10560,-0.5485800000000001,0.18335,-0.78394,4,41,160,76
10580,-0.52417,-0.08252,-0.8208,4,41,160,76
10600,-0.59522,0.15869,-0.75171,4,41,160,76
10620,-0.62866,0.27612,-0.6782199999999999,4,41,160,76
10640,-0.45508,0.6030300000000001,-0.61328,4,41,160,76
10660,-0.50781,-0.10547,-0.8317899999999999,4,41,160,76
10680,-0.4751,-0.099121,-0.8471700000000001,4,41,160,76
10700,-0.51343,-0.090088,-0.8281299999999999,4,41,160,76
10720,-0.4502,-0.079834,-0.8676799999999999,4,41,160,76
10740,-0.44775,-0.22485,-0.8537600000000001,4,41,160,76
10760,-0.48169,0.62158,-0.76465,4,41,160,76
10780,-0.52661,-0.091797,-0.8242200000000001,4,41,160,76
10800,-0.479,-0.092529,-0.86572,4,41,160,76
10820,-0.8266600000000001,-0.27002,-0.52246,4,41,160,76
10840,-0.5144,-0.1176799999999999,-0.8361799999999999,4,41,160,76
10860,-0.44751,-0.081299,-0.87695,4,41,160,76
10880,-0.52148,-0.10693,-0.8266600000000001,4,41,160,76
10900,-0.45483,-0.2243699999999999,-0.8449700000000001,4,41,160,76
10920,-0.71265,-0.023682,-0.69434,4,41,160,76
10940,-0.6272,0.32446,-0.65112,4,41,160,76
10960,-0.5161100000000001,-0.0935059999999999,-0.83691,4,41,160,76
10980,-0.53003,0.27539,-0.76294,4,41,160,76
11000,-0.60449,0.42578,-0.62451,4,41,160,76
11020,-0.45313,-0.081787,-0.86475,4,41,160,76
11040,-0.63135,0.39331,-0.6110800000000001,4,41,160,76
11060,-0.5544399999999999,0.46729,-0.6462399999999999,4,41,160,76
11080,-0.49145,-0.10205,-0.78906,4,41,160,76
11100,-0.4541,-0.22485,-0.84424,4,41,160,76
11120,-0.61719,0.39502,-0.6389199999999999,4,41,160,76
11140,-0.52881,-0.086914,-0.83252,4,41,160,76
11160,-0.6919,0.32764,-0.58691,4,41,160,76
11180,-0.4650899999999999,-0.1735799999999999,-0.81103,4,41,160,76
11200,-0.8220200000000001,0.031738,-0.50781,4,41,160,76
11220,-0.45532,-0.2312,-0.84131,4,41,160,76
11240,-0.4545899999999999,-0.17847,-0.86011,4,41,160,76
11260,-0.59839,0.0737299999999999,-0.78272,4,41,160,76
11280,-0.49121,0.25366,-0.81348,4,41,160,76
11300,-0.44653,-0.076904,-0.8701200000000001,4,41,160,76
11320,-0.4482399999999999,-0.0815429999999999,-0.8720700000000001,4,41,160,76
11340,-0.47607,0.4489800000000001,-0.7358399999999999,4,41,160,76
11360,-0.5483399999999999,0.49414,-0.5061,4,41,160,76
11380,-0.64307,0.05542,-0.72559,4,41,160,76
11400,-0.62744,0.23852,-0.69165,4,41,160,76
11420,-0.5813,0.5424800000000001,-0.61621,4,41,160,76
11440,-0.63843,-0.019043,-0.74683,4,41,160,76
11460,-0.62329,0.5219699999999999,-0.59692,4,41,160,76
11480,-0.52856,-0.092285,-0.81812,4,41,160,76
11500,-0.51855,-0.096191,-0.8266600000000001,4,41,160,76
11520,-0.5473600000000001,0.032471,-0.8234899999999999,4,41,160,76
11540,-0.5219699999999999,-0.1052299999999999,-0.81909,4,41,160,76
11560,-0.6601600000000001,0.057861,-0.71631,4,41,160,76
11580,-0.60718,0.10303,-0.7600100000000001,4,41,160,76
11600,-0.52832,0.50024,-0.6169399999999999,4,41,160,76
11620,-0.61011,0.36206,-0.65649,4,41,160,76
11640,-0.7128899999999999,0.38843,-0.49951,4,41,160,76
11660,-0.52051,-0.11475,-0.8335,4,41,160,76
11680,-0.47168,-0.088379,-0.8574200000000001,4,41,160,76
11700,-0.5459,0.44434,-0.6462399999999999,4,41,160,76
11720,-0.52173,0.45288,-0.66699,4,41,160,76
11740,-0.5371100000000001,-0.0896,-0.8242200000000001,4,41,160,76
11760,-0.59253,0.38965,-0.66797,4,41,160,76
11780,-0.66089,0.31372,-0.59277,4,41,160,76
11800,-0.52466,-0.0820309999999999,-0.82373,4,41,160,76
11820,-0.45093,-0.22559,-0.84815,4,41,160,76
11840,-0.5271,-0.088623,-0.8244600000000001,4,41,160,76
11860,-0.5212399999999999,-0.11108,-0.8322700000000001,4,41,160,76
11880,-0.50952,0.096191,-0.83716,4,41,160,76
11900,-0.45386,-0.1897,-0.8532700000000001,4,41,160,76
11920,-0.7299800000000001,0.15479,-0.5996100000000001,4,41,160,76
11940,-0.52344,-0.0896,-0.8388700000000001,4,41,160,76
11960,-0.60523,0.39331,-0.6442899999999999,4,41,160,76
11980,-0.65332,0.20483,-0.65991,4,41,160,76
12000,-0.4572699999999999,-0.075684,-0.87085,4,41,160,76
12020,-0.45996,-0.078613,-0.87964,4,41,160,76
12040,-0.59863,0.37476,-0.64917,4,41,160,76
12060,-0.38281,0.39551,-0.7522,4,41,160,76
12080,-0.57617,0.39307,-0.6731,4,41,160,76
12100,-0.65283,0.42554,-0.5825199999999999,4,41,160,76
12120,-0.47095,-0.19043,-0.8867200000000001,4,41,160,76
12140,-0.44898,-0.22876,-0.84839,4,41,160,76
12160,-0.69214,-0.073486,-0.68799,4,41,160,76
12180,-0.5415,0.008789,-0.81934,4,41,160,76
12200,-0.45605,-0.2229,-0.8523,4,41,160,76
12220,-0.62866,0.34058,-0.6018100000000001,4,41,160,76
12240,-0.51563,-0.10693,-0.82983,4,41,160,76
12260,-0.61597,0.28394,-0.6687,4,41,160,76
12280,-0.45215,-0.2229,-0.85083,4,41,160,76
12300,-0.6792,-0.007324,-0.65991,4,41,160,76
12320,-0.51074,-0.10889,-0.83105,4,41,160,76
12340,-0.45215,-0.23315,-0.8476600000000001,4,41,160,76
12360,-0.55615,0.48413,-0.63013,4,41,160,76
12380,-0.69995,0.15527,-0.66357,4,41,160,76
12400,-0.45142,-0.22778,-0.85083,4,41,160,76
12420,-0.68921,0.22559,-0.6333,4,41,160,76
12440,-0.66235,0.35425,-0.61157,4,41,160,76
12460,-0.44995,-0.22607,-0.84888,4,41,160,76
12480,-0.7102,0.092529,-0.5625,4,41,160,76
12500,-0.52685,-0.10693,-0.8222700000000001,4,41,160,76
12520,-0.45679,-0.18262,-0.85254,4,41,160,76
12540,-0.46826,-0.18457,-0.85303,4,41,160,76
12560,-0.5144,-0.099121,-0.8320299999999999,4,41,160,76
12580,-0.6191399999999999,0.10425,-0.77612,4,41,160,76
12600,-0.65698,0.39575,-0.5647,4,41,160,76
12620,-0.53247,-0.1328099999999999,-0.81592,4,41,160,76
12640,-0.5412600000000001,0.6030300000000001,-0.49414,4,41,160,76
12660,-0.60254,-0.005859,-0.79199,4,41,160,76
12680,-0.65332,0.35889,-0.60278,4,41,160,76
12700,-0.4572699999999999,-0.17798,-0.86426,4,41,160,76
12720,-0.59204,0.18018,-0.79907,4,41,160,76
12740,-0.53125,-0.087891,-0.8198200000000001,4,41,160,76
12760,-0.4631399999999999,-0.078369,-0.87598,4,41,160,76
12780,-0.45264,-0.076904,-0.86426,4,41,160,76
12800,-0.71753,0.14941,-0.6416,4,41,160,76
12820,-0.53027,-0.088867,-0.81665,4,41,160,76
12840,-0.54468,0.060059,-0.7753899999999999,4,41,160,76
12860,-0.44531,-0.080811,-0.8689,4,41,160,76
12880,-0.4585,-0.2221699999999999,-0.8540000000000001,4,41,160,76
12900,-0.65698,0.18652,-0.68384,4,41,160,76
12920,-0.51367,-0.095215,-0.8234899999999999,4,41,160,76
12940,-0.45093,-0.081055,-0.87329,4,41,160,76
12960,-0.61279,0.12061,-0.7399899999999999,4,41,160,76
12980,-0.59937,0.4270000000000001,-0.62817,4,41,160,76
13000,-0.6355,0.26953,-0.65283,4,41,160,76
13020,-0.4504399999999999,-0.23169,-0.8403299999999999,4,41,160,76
13040,-0.52685,-0.0852049999999999,-0.8234899999999999,4,41,160,76
13060,-0.53003,-0.085938,-0.81665,4,41,160,76
13080,-0.62598,0.13892,-0.78247,4,41,160,76
13100,-0.45776,-0.082764,-0.8710899999999999,4,41,160,76
13120,-0.4585,-0.21875,-0.8510700000000001,4,41,160,76
13140,-0.4565399999999999,-0.22705,-0.85303,4,41,160,76
13160,-0.68188,0.081787,-0.68555,4,41,160,76
13180,-0.58594,0.39136,-0.65991,5,48,184,80
13200,-0.45142,-0.086914,-0.87402,5,48,184,80
13220,-0.52637,0.54102,-0.58545,5,48,184,80
13240,-0.7207,0.030762,-0.6665,5,48,184,80
13260,-0.53467,-0.081055,-0.8234899999999999,5,48,184,80
13280,-0.604,0.24683,-0.71167,5,48,184,80
13300,-0.4523899999999999,-0.2221699999999999,-0.8471700000000001,5,48,184,80
13320,-0.45703,-0.077637,-0.87134,5,48,184,80
13340,-0.604,0.46777,-0.60742,5,48,184,80
13360,-0.68848,0.0896,-0.68481,5,48,184,80
13380,-0.66528,0.10205,-0.69629,5,48,184,80
13400,-0.53223,0.49243,-0.6362300000000001,5,48,184,80
13420,-0.64477,0.32349,-0.70703,5,48,184,80
13440,-0.479,-0.10059,-0.8513200000000001,5,48,184,80
13460,-0.5039100000000001,-0.090088,-0.8205600000000001,5,48,184,80
13480,-0.5144,-0.1176799999999999,-0.8361799999999999,5,48,184,80
13500,-0.4511699999999999,-0.083984,-0.87134,5,48,184,80
13520,-0.6794399999999999,0.17822,-0.74463,5,48,184,80
13540,-0.59277,0.4516600000000001,-0.63135,5,48,184,80
13560,-0.66333,0.15796,-0.6462399999999999,5,48,184,80
13580,-0.7356,0.067139,-0.61548,5,48,184,80
13600,-0.50708,0.0820309999999999,-0.83057,5,48,184,80
13620,-0.47803,-0.095947,-0.84399,5,48,184,80
13640,-0.52441,-0.088623,-0.82837,5,48,184,80
13660,-0.63452,0.38623,-0.63843,5,48,184,80
13680,-0.23145,0.60596,-0.90088,5,48,184,80
13700,-0.53052,-0.12329,-0.81201,5,48,184,80
13720,-0.53076,-0.084961,-0.8239799999999999,5,48,184,80
13740,-0.44971,-0.070801,-0.8737799999999999,5,48,184,80
13760,-0.45361,-0.084229,-0.86987,5,48,184,80
13780,-0.6308600000000001,0.125,-0.7246100000000001,5,48,184,80
13800,-0.4711899999999999,-0.18872,-0.8398399999999999,5,48,184,80
13820,-0.50024,0.42798,-0.68628,5,48,184,80
13840,-0.44727,-0.078125,-0.8710899999999999,5,48,184,80
13860,-0.5463899999999999,0.069336,-0.8378899999999999,5,48,184,80
13880,-0.46045,-0.19482,-0.8466799999999999,5,48,184,80
13900,-0.45313,-0.22583,-0.84985,5,48,184,80
13920,-0.47363,-0.0976559999999999,-0.8496100000000001,5,48,184,80
13940,-0.7963899999999999,0.025635,-0.55469,5,48,184,80
13960,-0.84985,0.05127,-0.4802300000000001,5,48,184,80
13980,-0.52954,-0.083984,-0.82153,5,48,184,80
14000,-0.5141600000000001,-0.1106,-0.8239799999999999,5,48,184,80
14020,-0.44898,-0.22803,-0.8554700000000001,5,48,184,80
14040,-0.52832,0.43213,-0.68262,5,48,184,80
14060,-0.5227,-0.11133,-0.83252,5,48,184,80
14080,-0.45483,-0.0778809999999999,-0.86206,5,48,184,80
14100,-0.5219699999999999,-0.11084,-0.8244600000000001,5,48,184,80
14120,-0.44922,-0.22046,-0.8491200000000001,5,48,184,80
14140,-0.53052,0.49121,-0.6359899999999999,5,48,184,80
14160,-0.45093,-0.22632,-0.8396,5,48,184,80
14180,-0.5212399999999999,-0.1079099999999999,-0.82129,5,48,184,80
14200,-0.7558600000000001,-0.15527,-0.89404,5,48,184,80
14220,-0.53101,-0.088867,-0.8320299999999999,5,48,184,80
14240,-0.5752,0.39185,-0.6674800000000001,5,48,184,80
14260,-0.53125,-0.12329,-0.81079,5,48,184,80
14280,-0.4572699999999999,-0.075684,-0.87085,5,48,184,80
14300,-0.71216,0.0700679999999999,-0.67456,5,48,184,80
14320,-0.50781,0.49048,-0.64282,5,48,184,80
14340,-0.52954,-0.12427,-0.8242200000000001,5,48,184,80
14360,-0.4523899999999999,-0.18921,-0.84741,5,48,184,80
14380,-0.45532,-0.070801,-0.87524,5,48,184,80
14400,-0.64355,0.22998,-0.69238,5,48,184,80
14420,-0.44946,-0.19873,-0.89551,5,48,184,80
14440,-0.74048,0.043701,-0.61816,5,48,184,80
14460,-0.5293,-0.12842,-0.83105,5,48,184,80
14480,-0.50098,0.21753,-0.80615,5,48,184,80
14500,-0.53491,-0.087402,-0.82105,5,48,184,80
14520,-0.57324,0.42847,-0.6477,5,48,184,80
14540,-0.52881,0.41064,-0.71045,5,48,184,80
14560,-0.4479999999999999,-0.0852049999999999,-0.8720700000000001,5,48,184,80
14580,-0.45532,-0.082764,-0.88013,5,48,184,80
14600,-0.52588,-0.13062,-0.81812,5,48,184,80
14620,-0.7395,0.14624,-0.56226,5,48,184,80
14640,-0.59253,-0.021973,-0.71704,5,48,184,80
14660,-0.57007,0.11279,-0.79102,5,48,184,80
14680,-0.44751,-0.19043,-0.8571799999999999,5,48,184,80
14700,-0.68408,-0.037842,-0.69482,5,48,184,80
14720,-0.62451,0.34326,-0.65112,5,48,184,80
14740,-0.52295,-0.10718,-0.82129,5,48,184,80
14760,-0.4794899999999999,-0.088867,-0.8535200000000001,5,48,184,80
14780,-0.57007,0.16602,-0.79077,5,48,184,80
14800,-0.52759,-0.12378,-0.81567,5,48,184,80
14820,-0.66675,0.0773929999999999,-0.71997,5,48,184,80
14840,-0.4502,-0.078369,-0.8764700000000001,5,48,184,80
14860,-0.5813,0.073242,-0.7700199999999999,5,48,184,80
14880,-0.45483,-0.2289999999999999,-0.84985,5,48,184,80
14900,-0.7341300000000001,0.28418,-0.56519,5,48,184,80
14920,-0.45972,0.52173,-0.66602,5,48,184,80
14940,-0.6369600000000001,0.15381,-0.69653,5,48,184,80
14960,-0.52832,0.38403,-0.70215,5,48,184,80
14980,-0.45337,-0.22998,-0.85449,5,48,184,80
15000,-0.68213,-0.011963,-0.72388,5,48,184,80
15020,-0.45068,-0.0778809999999999,-0.87256,5,48,184,80
15040,-0.5564,0.4895,-0.6228,5,48,184,80
15060,-0.52148,-0.10767,-0.81934,5,48,184,80
15080,-0.61719,0.22192,-0.7360800000000001,5,48,184,80
15100,-0.60327,0.37573,-0.64844,5,48,184,80
15120,-0.66162,0.34009,-0.61133,5,48,184,80
15140,-0.50952,-0.10693,-0.82837,5,48,184,80
15160,-0.71875,0.19312,-0.61816,5,48,184,80
15180,-0.5151399999999999,0.177,-0.87964,5,48,184,80
15200,-0.52441,-0.1189,-0.81397,5,48,184,80
15220,-0.52685,-0.088623,-0.81323,5,48,184,80
15240,-0.68066,0.081787,-0.6919,5,48,184,80
15260,-0.51855,-0.1084,-0.81665,5,48,184,80
15280,-0.62793,0.26855,-0.70703,5,48,184,80
15300,-0.65698,0.18652,-0.68384,5,48,184,80
15320,-0.52637,0.49609,-0.6362300000000001,5,48,184,80
15340,-0.45825,-0.080322,-0.86719,5,48,184,80
15360,-0.51318,-0.099609,-0.81323,5,48,184,80
15380,-0.53247,-0.1328099999999999,-0.81592,5,48,184,80
15400,-0.47852,-0.095459,-0.8574200000000001,5,48,184,80
15420,-0.45264,-0.22583,-0.8615700000000001,5,48,184,80
15440,-0.44873,-0.2289999999999999,-0.8466799999999999,5,48,184,80
15460,-0.49878,0.23023,-0.7387699999999999,5,48,184,80
15480,-0.63672,0.29102,-0.6792,5,48,184,80
15500,-0.45435,-0.0754389999999999,-0.86645,5,48,184,80
15520,-0.72607,0.23486,-0.60425,5,48,184,80
15540,-0.52148,-0.0791019999999999,-0.8266600000000001,5,48,184,80
15560,-0.67529,0.081787,-0.69312,5,48,184,80
15580,-0.4519,-0.083008,-0.86865,5,48,184,80
15600,-0.52759,-0.1311,-0.80762,5,48,184,80
15620,-0.51318,-0.1084,-0.83252,5,48,184,80
15640,-0.45581,-0.18481,-0.8593799999999999,5,48,184,80
15660,-0.4523899999999999,-0.23145,-0.84644,5,48,184,80
15680,-0.52563,-0.11279,-0.81372,5,48,184,80
15700,-0.47778,0.18823,-0.8269,5,48,184,80
15720,-0.57471,0.099365,-0.7580600000000001,5,48,184,80
15740,-0.6403800000000001,0.37573,-0.67065,5,48,184,80
15760,-0.4816899999999999,-0.096436,-0.85767,5,48,184,80
15780,-0.80835,-0.1084,-0.6342800000000001,5,48,184,80
15800,-0.44946,-0.23169,-0.8523,5,48,184,80
15820,-0.55395,0.4099100000000001,-0.66919,5,48,184,80
15840,-0.45532,-0.19067,-0.8562,5,48,184,80
15860,-0.45923,-0.1853,-0.8613299999999999,5,48,184,80
15880,-0.45752,-0.19482,-0.8557100000000001,5,48,184,80
15900,-0.45947,-0.22803,-0.84277,5,48,184,80
15920,-0.60327,0.38037,-0.65381,5,48,184,80
15940,-0.68897,0.016113,-0.69019,5,48,184,80
15960,-0.54688,0.55835,-0.56226,5,48,184,80
15980,-0.4563,-0.19238,-0.86792,5,48,184,80
16000,-0.53076,-0.093994,-0.81323,5,48,184,80
16020,-0.70581,0.074463,-0.7168,5,48,184,80
16040,-0.4873,-0.097412,-0.8532700000000001,5,48,184,80
16060,-0.52661,-0.083496,-0.8205600000000001,5,48,184,80
16080,-0.52075,-0.094482,-0.81274,5,48,184,80
16100,-0.52417,-0.082764,-0.8252,5,48,184,80
16120,-0.6687,0.099609,-0.6342800000000001,5,48,184,80
16140,-0.4502,-0.19043,-0.8523,5,48,184,80
16160,-0.5202600000000001,-0.10693,-0.8300799999999999,5,48,184,80
16180,-0.4523899999999999,-0.22998,-0.8466799999999999,5,48,184,80
16200,-0.45581,-0.18506,-0.85278,5,48,184,80
16220,-0.64966,-0.069336,-0.73047,5,48,184,80
16240,-0.45313,-0.18457,-0.83472,5,48,184,80
16260,-0.4816899999999999,-0.0947269999999999,-0.8479,5,48,184,80
16280,-0.73193,0.1394,-0.6167,5,48,184,80
16300,-0.52954,-0.13208,-0.81909,5,48,184,80
16320,-0.45068,-0.088623,-0.87036,5,48,184,80
16340,-0.45361,-0.22461,-0.8523,5,48,184,80
16360,-0.69214,0.11939,-0.6735800000000001,5,48,184,80
16380,-0.5173300000000001,-0.1059599999999999,-0.8220200000000001,5,48,184,80
16400,-0.4755899999999999,-0.0935059999999999,-0.8652299999999999,5,48,184,80
16420,-0.57398,0.46167,-0.6459999999999999,5,48,184,80
16440,-0.56714,0.48584,-0.6272,5,48,184,80
16460,-0.6169399999999999,0.33594,-0.67065,5,48,184,80
16480,-0.479,-0.094482,-0.8537600000000001,5,48,184,80
16500,-0.67993,0.18848,-0.67676,5,48,184,80
16520,-0.45508,-0.078613,-0.86841,5,48,184,80
16540,-0.53052,-0.12817,-0.8449700000000001,5,48,184,80
16560,-0.45776,-0.22241,-0.8571799999999999,5,48,184,80
16580,-0.4519,-0.083984,-0.8742700000000001,5,48,184,80
16600,-0.61426,0.3313,-0.68018,6,47,183,50
16620,-0.53296,-0.1084,-0.83935,6,47,183,50
16640,-0.66455,0.10547,-0.73364,6,47,183,50
16660,-0.45142,-0.23218,-0.8540000000000001,6,47,183,50
16680,-0.5725100000000001,0.4834,-0.61523,6,47,183,50
16700,-0.45386,-0.074707,-0.8718299999999999,6,47,183,50
16720,-0.46558,-0.18677,-0.86182,6,47,183,50
16740,-0.4545899999999999,-0.075195,-0.86792,6,47,183,50
16760,-0.7019,0.15405,-0.65747,6,47,183,50
16780,-0.44995,-0.0820309999999999,-0.86206,6,47,183,50
16800,-0.45337,-0.068604,-0.87744,6,47,183,50
16820,-0.5109899999999999,0.1084,-0.8295899999999999,6,47,183,50
16840,-0.45386,-0.22949,-0.84644,6,47,183,50
16860,-0.44727,-0.077637,-0.87476,6,47,183,50
16880,-0.74219,0.14209,-0.6030300000000001,6,47,183,50
16900,-0.45679,-0.0754389999999999,-0.87744,6,47,183,50
16920,-0.61352,0.14941,-0.7639199999999999,6,47,183,50
16940,-0.51489,-0.11304,-0.8337399999999999,6,47,183,50
16960,-0.5112300000000001,-0.068115,-0.84546,6,47,183,50
16980,-0.4545899999999999,-0.2219199999999999,-0.84985,6,47,183,50
17000,-0.51489,-0.0947269999999999,-0.8322700000000001,6,47,183,50
17020,-0.44556,-0.22021,-0.82739,6,47,183,50
17040,-0.61841,0.027588,-0.7692899999999999,6,47,183,50
17060,-0.6108399999999999,0.34619,-0.67798,6,47,183,50
17080,-0.5200199999999999,0.4411600000000001,-0.68481,6,47,183,50
17100,-0.56909,0.44922,-0.6311,6,47,183,50
17120,-0.4707,-0.1789599999999999,-0.80029,6,47,183,50
17140,-0.60645,0.38086,-0.65356,6,47,183,50
17160,-0.4523899999999999,-0.19751,-0.85425,6,47,183,50
17180,-0.52637,-0.092285,-0.8281299999999999,6,47,183,50
17200,-0.81665,0.023438,-0.51025,6,47,183,50
17220,-0.7307100000000001,0.049316,-0.6543,6,47,183,50
17240,-0.56787,0.53565,-0.56958,6,47,183,50
17260,-0.5249,0.12988,-0.84131,6,47,183,50
17280,-0.55786,0.40234,-0.6816399999999999,6,47,183,50
17300,-0.5166,0.4431100000000001,-0.66138,6,47,183,50
17320,-0.4563,-0.18237,-0.85669,6,47,183,50
17340,-0.51563,-0.1079099999999999,-0.8261700000000001,6,47,183,50
17360,-0.46729,-0.074219,-0.87476,6,47,183,50
17380,-0.3269,0.06543,-0.92871,6,47,183,50
17400,-0.75879,0.021484,-0.81958,6,47,183,50
17420,-0.52563,-0.0832519999999999,-0.82129,6,47,183,50
17440,-0.47852,-0.091309,-0.85913,6,47,183,50
17460,-0.75098,-0.16187,-0.5898399999999999,6,47,183,50
17480,-0.44946,-0.078613,-0.8689,6,47,183,50
17500,-0.52612,-0.10254,-0.8169,6,47,183,50
17520,-0.44531,-0.080811,-0.8689,6,47,183,50
17540,-0.52808,-0.078613,-0.81934,6,47,183,50
17560,-0.53638,-0.091797,-0.81519,6,47,183,50
17580,-0.44141,0.56348,-0.58032,6,47,183,50
17600,-0.6333,0.38452,-0.64355,6,47,183,50
17620,-0.5271,-0.084473,-0.8242200000000001,6,47,183,50
17640,-0.66406,0.35547,-0.61963,6,47,183,50
17660,-0.45215,-0.22778,-0.8466799999999999,6,47,183,50
17680,-0.46362,-0.23145,-0.84595,6,47,183,50
17700,-0.44556,-0.22461,-0.8552299999999999,6,47,183,50
17720,-0.62622,0.31421,-0.65723,6,47,183,50
17740,-0.62183,0.3501,-0.62915,6,47,183,50
17760,-0.47168,-0.22583,-0.8405799999999999,6,47,183,50
17780,-0.5249,-0.090088,-0.8183600000000001,6,47,183,50
17800,-0.53296,-0.1272,-0.8222700000000001,6,47,183,50
17820,-0.6936,0.20215,-0.63281,6,47,183,50
17840,-0.66284,0.34326,-0.62353,6,47,183,50
17860,-0.50708,-0.12842,-0.8784200000000001,6,47,183,50
17880,-0.47388,-0.093994,-0.85205,6,47,183,50
17900,-0.5566399999999999,0.4809600000000001,-0.62476,6,47,183,50
17920,-0.52051,-0.1084,-0.8266600000000001,6,47,183,50
17940,-0.52563,-0.11646,-0.8281299999999999,6,47,183,50
17960,-0.66602,0.19556,-0.6462399999999999,6,47,183,50
17980,-0.54956,0.31616,-0.8962399999999999,6,47,183,50
18000,-0.46387,-0.23242,-0.86279,6,47,183,50
18020,-0.65527,-0.025391,-0.71973,6,47,183,50
18040,-0.52368,-0.09082,-0.83252,6,47,183,50
18060,-0.45679,-0.078613,-0.87964,6,47,183,50
18080,-0.4523899999999999,-0.2265599999999999,-0.8418,6,47,183,50
18100,-0.61792,0.35791,-0.64575,6,47,183,50
18120,-0.51855,-0.082764,-0.8234899999999999,6,47,183,50
18140,-0.45557,-0.22241,-0.84741,6,47,183,50
18160,-0.53638,-0.12524,-0.8259299999999999,6,47,183,50
18180,-0.45825,-0.22974,-0.8510700000000001,6,47,183,50
18200,-0.52905,0.50415,-0.65283,6,47,183,50
18220,-0.52637,-0.12866,-0.82129,6,47,183,50
18240,-0.55762,-0.018799,-0.83716,6,47,183,50
18260,-0.69775,-0.010498,-0.63403,6,47,183,50
18280,-0.68286,0.18384,-0.65161,6,47,183,50
18300,-0.5100100000000001,-0.10547,-0.84204,6,47,183,50
18320,-0.75684,-0.041992,-0.63574,6,47,183,50
18340,-0.32471,0.31226,-0.8674299999999999,6,47,183,50
18360,-0.45068,-0.080078,-0.8798799999999999,6,47,183,50
18380,-0.51685,-0.11499,-0.83154,6,47,183,50
18400,-0.45435,-0.1814,-0.8493700000000001,6,47,183,50
18420,-0.52466,-0.082275,-0.8208,6,47,183,50
18440,-0.49487,0.44507,-0.66528,6,47,183,50
18460,-0.4462899999999999,-0.080811,-0.87085,6,47,183,50
18480,-0.60815,0.40039,-0.6438,6,47,183,50
18500,-0.52856,-0.082764,-0.81543,6,47,183,50
18520,-0.7048300000000001,-0.087402,-0.67773,6,47,183,50
18540,-0.45703,-0.078857,-0.8718299999999999,6,47,183,50
18560,-0.45386,-0.2312,-0.8537600000000001,6,47,183,50
18580,-0.5878899999999999,0.098389,-0.75855,6,47,183,50
18600,-0.69434,0.3335,-0.58227,6,47,183,50
18620,-0.52881,-0.10449,-0.82471,6,47,183,50
18640,-0.45605,-0.23169,-0.8444799999999999,6,47,183,50
18660,-0.52417,0.43823,-0.68921,6,47,183,50
18680,-0.67188,0.044434,-0.69898,6,47,183,50
18700,-0.7246100000000001,0.20898,-0.61352,6,47,183,50
18720,-0.4511699999999999,-0.18164,-0.8337399999999999,6,47,183,50
18740,-0.44922,-0.22632,-0.8422799999999999,6,47,183,50
18760,-0.64355,0.084229,-0.72388,6,47,183,50
18780,-0.68872,0.079346,-0.68677,6,47,183,50
18800,-0.46143,-0.09082,-0.8696299999999999,6,47,183,50
18820,-0.7522,0.44995,-0.4895,6,47,183,50
18840,-0.44653,-0.22583,-0.84985,6,47,183,50
18860,-0.6975100000000001,0.1228,-0.74365,6,47,183,50
18880,-0.698,0.017822,-0.6782199999999999,6,47,183,50
18900,-0.73242,0.21973,-0.72437,6,47,183,50
18920,-0.58496,0.17017,-0.76685,6,47,183,50
18940,-0.67847,0.29932,-0.63281,6,47,183,50
18960,-0.55176,0.48657,-0.6420899999999999,6,47,183,50
18980,-0.5192899999999999,-0.1106,-0.83154,6,47,183,50
19000,-0.69702,0.086914,-0.68823,6,47,183,50
19020,-0.48755,0.46826,-0.66187,6,47,183,50
19040,-0.45605,-0.078369,-0.86816,6,47,183,50
19060,-0.69409,0.071289,-0.6875,6,47,183,50
19080,-0.45581,-0.23413,-0.8571799999999999,6,47,183,50
19100,-0.47998,-0.0935059999999999,-0.85425,6,47,183,50
19120,-0.6096199999999999,0.41968,-0.60278,6,47,183,50
19140,-0.53149,-0.089844,-0.8147,6,47,183,50
19160,-0.44482,-0.077637,-0.86426,6,47,183,50
19180,-0.5271,-0.12085,-0.82129,6,47,183,50
19200,-0.4545899999999999,-0.18237,-0.86645,6,47,183,50
19220,-0.45532,-0.075928,-0.8779299999999999,6,47,183,50
19240,-0.5737300000000001,0.47339,-0.6897,6,47,183,50
19260,-0.8220200000000001,0.030273,-0.50049,6,47,183,50
19280,-0.4519,-0.073975,-0.87085,6,47,183,50
19300,-0.52344,0.044922,-0.77441,6,47,183,50
19320,-0.46216,-0.2241199999999999,-0.85156,6,47,183,50
19340,-0.51025,-0.11231,-0.82544,6,47,183,50
19360,-0.49854,0.17285,-0.8388700000000001,6,47,183,50
19380,-0.62012,0.12622,-0.7387699999999999,6,47,183,50
19400,-0.5170899999999999,-0.10889,-0.82739,6,47,183,50
19420,-0.44751,-0.07251,-0.87329,6,47,183,50
19440,-0.45288,-0.2241199999999999,-0.85425,6,47,183,50
19460,-0.55102,0.024658,-0.80981,6,47,183,50
19480,-0.60523,0.39331,-0.6442899999999999,6,47,183,50
19500,-0.47827,0.51977,-0.65967,6,47,183,50
19520,-0.521,-0.07959,-0.8244600000000001,6,47,183,50
19540,-0.4504399999999999,-0.2199699999999999,-0.85669,6,47,183,50
19560,-0.8085899999999999,0.05249,-0.53735,6,47,183,50
19580,-0.6794399999999999,0.016113,-0.63208,6,47,183,50
19600,-0.53003,-0.091309,-0.8186,6,47,183,50
19620,-0.68897,0.016113,-0.69019,6,47,183,50
19640,-0.68677,0.007324,-0.69263,6,47,183,50
19660,-0.52685,-0.10889,-0.8239799999999999,6,47,183,50
19680,-0.76782,0.093018,-0.5734899999999999,6,47,183,50
19700,-0.51367,-0.090576,-0.8317899999999999,6,47,183,50
19720,-0.60449,0.35205,-0.6342800000000001,6,47,183,50
19740,-0.50952,0.096191,-0.83716,6,47,183,50
19760,-0.4597199999999999,-0.2334,-0.8510700000000001,6,47,183,50
19780,-0.4462899999999999,-0.0695799999999999,-0.88135,6,47,183,50
19800,-0.66309,-0.0612789999999999,-0.72192,6,47,183,50
19820,-0.5293,-0.1328099999999999,-0.81763,6,47,183,50
19840,-0.4597199999999999,-0.23315,-0.8496100000000001,6,47,183,50
19860,-0.47607,0.19312,-0.8403299999999999,6,47,183,50
19880,-0.68823,-0.01123,-0.73633,6,47,183,50
19900,-0.7297399999999999,0.19019,-0.58423,6,47,183,50
19920,-0.60645,0.22437,-0.7290000000000001,6,47,183,50
19940,-0.4511699999999999,-0.080566,-0.87451,7,63,186,87
19960,-0.71387,0.19434,-0.62988,7,63,186,87
19980,-0.45093,-0.23193,-0.85083,7,63,186,87
20000,-0.6733399999999999,0.33057,-0.6423300000000001,7,63,186,87
20020,-0.44873,-0.2268099999999999,-0.8523,7,63,186,87
20040,-0.45264,-0.22241,-0.8491200000000001,7,63,186,87
20060,-0.45068,-0.083496,-0.8742700000000001,7,63,186,87
20080,-0.51489,-0.096191,-0.8125,7,63,186,87
20100,-0.5253899999999999,-0.0856929999999999,-0.81909,7,63,186,87
20120,-0.52173,-0.10767,-0.83765,7,63,186,87
20140,-0.4511699999999999,-0.22778,-0.8523,7,63,186,87
20160,-0.52344,-0.088867,-0.83081,7,63,186,87
20180,-0.52881,-0.12695,-0.81592,7,63,186,87
20200,-0.51318,-0.10815,-0.83105,7,63,186,87
20220,-0.6189,0.38184,-0.63843,7,63,186,87
20240,-0.55176,0.45435,-0.6755399999999999,7,63,186,87
20260,-0.80029,0.043945,-0.521,7,63,186,87
20280,-0.59619,-0.005615,-0.74853,7,63,186,87
20300,-0.6401399999999999,0.17505,-0.6958,7,63,186,87
20320,-0.53003,-0.087158,-0.8266600000000001,7,63,186,87
20340,-0.50977,-0.10181,-0.82642,7,63,186,87
20360,-0.50781,-0.088867,-0.81519,7,63,186,87
20380,-0.71606,0.12891,-0.64551,7,63,186,87
20400,-0.44775,-0.083984,-0.86792,7,63,186,87
20420,-0.55078,0.19775,-0.7709999999999999,7,63,186,87
20440,-0.4565399999999999,-0.22485,-0.84106,7,63,186,87
20460,-0.43066,-0.046387,-0.73242,7,63,186,87
20480,-0.60083,0.37866,-0.66528,7,63,186,87
20500,-0.67871,0.08252,-0.69434,7,63,186,87
20520,-0.65918,0.062988,-0.7106899999999999,7,63,186,87
20540,-0.53662,0.43726,-0.66406,7,63,186,87
20560,-0.65088,0.11768,-0.69922,7,63,186,87
20580,-0.5471199999999999,0.46973,-0.61523,7,63,186,87
20600,-0.45581,-0.082764,-0.88403,7,63,186,87
20620,-0.47241,-0.091309,-0.86035,7,63,186,87
20640,-0.52832,0.44019,-0.67798,7,63,186,87
20660,-0.61182,0.093506,-0.75879,7,63,186,87
20680,-0.52075,-0.12964,-0.82275,7,63,186,87
20700,-0.45337,-0.072266,-0.86841,7,63,186,87
20720,-0.61328,0.30078,-0.68188,7,63,186,87
20740,-0.56274,-0.011719,-0.80102,7,63,186,87
20760,-0.4816899999999999,-0.097412,-0.85254,7,63,186,87
20780,-0.4504399999999999,-0.084473,-0.8737799999999999,7,63,186,87
20800,-0.5231899999999999,-0.12012,-0.8252,7,63,186,87
20820,-0.65552,-0.029785,-0.7346199999999999,7,63,186,87
20840,-0.60693,0.38379,-0.69434,7,63,186,87
20860,-0.52612,-0.088379,-0.82153,7,63,186,87
20880,-0.46045,-0.19214,-0.86206,7,63,186,87
20900,-0.66089,0.1735799999999999,-0.6936,7,63,186,87
20920,-0.36865,-0.16138,-0.875,7,63,186,87
20940,-0.52075,-0.1057099999999999,-0.8244600000000001,7,63,186,87
20960,-0.7390100000000001,0.025391,-0.7478,7,63,186,87
20980,-0.47607,-0.092041,-0.8593799999999999,7,63,186,87
21000,-0.51831,-0.09375,-0.8425299999999999,7,63,186,87
21020,-0.52588,-0.080322,-0.8200700000000001,7,63,186,87
21040,-0.56177,0.42383,-0.67725,7,63,186,87
21060,-0.5166,-0.10767,-0.8403299999999999,7,63,186,87
21080,-0.70996,0.22363,-0.59668,7,63,186,87
21100,-0.81592,0.17285,-0.39233,7,63,186,87
21120,-0.68506,0.089111,-0.698,7,63,186,87
21140,-0.69287,0.13623,-0.72168,7,63,186,87
21160,-0.5112300000000001,0.50488,-0.64063,7,63,186,87
21180,-0.52685,-0.08667,-0.82275,7,63,186,87
21200,-0.52344,-0.12915,-0.8244600000000001,7,63,186,87
21220,-0.5227,-0.0896,-0.8220200000000001,7,63,186,87
21240,-0.55762,0.38135,-0.67798,7,63,186,87
21260,-0.44385,0.063965,-0.87231,7,63,186,87
21280,-0.5466300000000001,0.46558,-0.64722,7,63,186,87
21300,-0.4565399999999999,-0.17969,-0.86182,7,63,186,87
21320,-0.45557,-0.22339,-0.8486299999999999,7,63,186,87
21340,-0.55493,0.56201,-0.55176,7,63,186,87
21360,-0.6755399999999999,-0.055176,-0.70386,7,63,186,87
21380,-0.53272,-0.13037,-0.8205600000000001,7,63,186,87
21400,-0.48608,-0.096436,-0.8615700000000001,7,63,186,87
21420,-0.7338899999999999,0.12964,-0.62231,7,63,186,87
21440,-0.4824199999999999,-0.091797,-0.8608399999999999,7,63,186,87
21460,-0.71606,0.13843,-0.64307,7,63,186,87
21480,-0.45386,-0.23218,-0.8547399999999999,7,63,186,87
21500,-0.45605,-0.076172,-0.86865,7,63,186,87
21520,-0.71338,0.10352,-0.65454,7,63,186,87
21540,-0.53272,-0.081787,-0.8169,7,63,186,87
21560,-0.4689899999999999,-0.1870099999999999,-0.8706,7,63,186,87
21580,-0.47436,-0.0930179999999999,-0.85815,7,63,186,87
21600,-0.52368,-0.09082,-0.83252,7,63,186,87
21620,-0.7419399999999999,0.10083,-0.6149899999999999,7,63,186,87
21640,-0.44995,-0.22534,-0.8479,7,63,186,87
21660,-0.6057100000000001,0.44043,-0.61987,7,63,186,87
21680,-0.44995,-0.18359,-0.8523,7,63,186,87
21700,-0.56421,0.4436,-0.65967,7,63,186,87
21720,-0.51074,-0.1079099999999999,-0.83105,7,63,186,87
21740,-0.5173300000000001,-0.1049799999999999,-0.8276399999999999,7,63,186,87
21760,-0.64355,0.09082,-0.72144,7,63,186,87
21780,-0.53857,-0.087646,-0.84473,7,63,186,87
21800,-0.51343,-0.11499,-0.83691,7,63,186,87
21820,-0.45288,-0.2229,-0.8449700000000001,7,63,186,87
21840,-0.60718,0.19849,-0.71875,7,63,186,87
21860,-0.45361,-0.19482,-0.87964,7,63,186,87
21880,-0.5227,-0.088867,-0.82153,7,63,186,87
21900,-0.5227,-0.10718,-0.82275,7,63,186,87
21920,-0.69067,-0.1228,-0.71216,7,63,186,87
21940,-0.5515100000000001,0.47021,-0.64893,7,63,186,87
21960,-0.45679,-0.076416,-0.8635200000000001,7,63,186,87
21980,-0.6794399999999999,0.17822,-0.74463,7,63,186,87
22000,-0.62353,0.29297,-0.6721199999999999,7,63,186,87
22020,-0.52954,-0.10474,-0.83472,7,63,186,87
22040,-0.6091300000000001,0.30005,-0.70801,7,63,186,87
22060,-0.62671,0.35254,-0.63355,7,63,186,87
22080,-0.52832,-0.1079099999999999,-0.8320299999999999,7,63,186,87
22100,-0.66187,0.21606,-0.69385,7,63,186,87
22120,-0.45142,-0.086182,-0.87329,7,63,186,87
22140,-0.72388,0.29297,-0.55933,7,63,186,87
22160,-0.6687,0.34399,-0.604,7,63,186,87
22180,-0.55347,0.49731,-0.62915,7,63,186,87
22200,-0.51294,-0.1079099999999999,-0.8547399999999999,7,63,186,87
22220,-0.45068,-0.22021,-0.84644,7,63,186,87
22240,-0.45532,-0.070801,-0.87524,7,63,186,87
22260,-0.53052,-0.13452,-0.80493,7,63,186,87
22280,-0.5139199999999999,-0.11719,-0.8244600000000001,7,63,186,87
22300,-0.51025,-0.1049799999999999,-0.81567,7,63,186,87
22320,-0.44702,-0.082764,-0.87451,7,63,186,87
22340,-0.44971,-0.23096,-0.8452200000000001,7,63,186,87
22360,-0.5293,-0.1328099999999999,-0.81763,7,63,186,87
22380,-0.44946,-0.0852049999999999,-0.87256,7,63,186,87
22400,-0.45337,-0.074707,-0.875,7,63,186,87
22420,-0.5039100000000001,-0.1052299999999999,-0.83472,7,63,186,87
22440,-0.5432100000000001,-0.0976559999999999,-0.81909,7,63,186,87
22460,-0.69482,0.020996,-0.68823,7,63,186,87
22480,-0.52344,-0.0791019999999999,-0.82495,7,63,186,87
22500,-0.53394,-0.084473,-0.82544,7,63,186,87
22520,-0.47363,-0.090332,-0.85059,7,63,186,87
22540,-0.53101,-0.12305,-0.81152,7,63,186,87
22560,-0.52637,-0.080811,-0.82105,7,63,186,87
22580,-0.4646,-0.18335,-0.8640100000000001,7,63,186,87
22600,-0.45337,-0.2243699999999999,-0.85278,7,63,186,87
22620,-0.4484899999999999,-0.074463,-0.8737799999999999,7,63,186,87
22640,-0.45825,-0.078857,-0.88159,7,63,186,87
22660,-0.4504399999999999,-0.22388,-0.85449,7,63,186,87
22680,-0.6665,0.28564,-0.66333,7,63,186,87
22700,-0.45264,-0.23023,-0.8510700000000001,7,63,186,87
22720,-0.59741,0.064209,-0.77661,7,63,186,87
22740,-0.6835899999999999,0.39697,-0.64136,7,63,186,87
22760,-0.52344,-0.10815,-0.83325,7,63,186,87
22780,-0.53345,-0.12036,-0.81348,7,63,186,87
22800,-0.44971,-0.076416,-0.87329,7,63,186,87
22820,-0.52881,-0.086914,-0.83252,7,63,186,87
22840,-0.45361,-0.22876,-0.84888,7,63,186,87
22860,-0.4541,-0.071777,-0.8710899999999999,7,63,186,87
22880,-0.47998,-0.104,-0.8540000000000001,7,63,186,87
22900,-0.48267,0.51953,-0.65552,7,63,186,87
22920,-0.46411,-0.083008,-0.8916,7,63,186,87
22940,-0.4545899999999999,-0.22534,-0.8479,7,63,186,87
22960,-0.53394,0.068115,-0.8205600000000001,7,63,186,87
22980,-0.4545899999999999,-0.2289999999999999,-0.8452200000000001,7,63,186,87
23000,-0.63257,0.13379,-0.73657,7,63,186,87
23020,-0.63013,0.093994,-0.75073,7,63,186,87
23040,-0.79614,-0.006104,-0.5166,7,63,186,87
23060,-0.53369,0.48877,-0.61963,7,63,186,87
23080,-0.51465,-0.10474,-0.83716,7,63,186,87
23100,-0.53052,-0.1167,-0.8259299999999999,7,63,186,87
23120,-0.61475,0.1831,-0.73926,7,63,186,87
23140,-0.72437,0.24902,-0.5227,7,63,186,87
23160,-0.5170899999999999,-0.11646,-0.8208,7,63,186,87
23180,-0.44873,-0.0773929999999999,-0.8833,7,63,186,87
23200,-0.45435,-0.18677,-0.85864,7,63,186,87
23220,-0.49683,0.48462,-0.73218,7,63,186,87
23240,-0.5844699999999999,0.42529,-0.62231,7,63,186,87
23260,-0.45435,-0.18433,-0.8513200000000001,7,63,186,87
23280,-0.47803,-0.095947,-0.84399,7,63,186,87
23300,-0.4628899999999999,-0.079834,-0.8779299999999999,7,63,186,87
23320,-0.4350600000000001,0.14136,-0.85278,7,63,186,87
23340,-0.45679,-0.23023,-0.8554700000000001,8,23,175,57
23360,-0.53198,0.43481,-0.65405,8,23,175,57
23380,-0.8476600000000001,0.12134,-0.4187,8,23,175,57
23400,-0.44727,-0.22803,-0.8547399999999999,8,23,175,57
23420,-0.6704100000000001,0.32861,-0.66992,8,23,175,57
23440,-0.7016600000000001,0.098633,-0.69263,8,23,175,57
23460,-0.74463,0.006348,-0.65308,8,23,175,57
23480,-0.5791,0.45972,-0.6210899999999999,8,23,175,57
23500,-0.45923,-0.1875,-0.8584,8,23,175,57
23520,-0.65625,0.10718,-0.70093,8,23,175,57
23540,-0.72192,0.16699,-0.56738,8,23,175,57
23560,-0.5764199999999999,0.34912,-0.6438,8,23,175,57
23580,-0.6648,0.32007,-0.6110800000000001,8,23,175,57
23600,-0.45386,-0.1872599999999999,-0.8925799999999999,8,23,175,57
23620,-0.6672399999999999,0.3562,-0.60864,8,23,175,57
23640,-0.70239,0.13013,-0.65845,8,23,175,57
23660,-0.4523899999999999,-0.083496,-0.86865,8,23,175,57
23680,-0.6157199999999999,0.38013,-0.63403,8,23,175,57
23700,-0.5253899999999999,-0.088135,-0.82275,8,23,175,57
23720,-0.59619,0.1626,-0.76172,8,23,175,57
23740,-0.60547,-0.040039,-0.78418,8,23,175,57
23760,-0.44482,-0.084473,-0.8667,8,23,175,57
23780,-0.45801,-0.19263,-0.8554700000000001,8,23,175,57
23800,-0.64795,-0.075684,-0.72656,8,23,175,57
23820,-0.51831,-0.11475,-0.8337399999999999,8,23,175,57
23840,-0.45313,-0.22705,-0.85059,8,23,175,57
23860,-0.53003,-0.091553,-0.8205600000000001,8,23,175,57
23880,-0.5231899999999999,-0.1059599999999999,-0.82568,8,23,175,57
23900,-0.6835899999999999,0.052734,-0.69043,8,23,175,57
23920,-0.55591,0.010742,-0.8317899999999999,8,23,175,57
23940,-0.72168,-0.000244,-0.64136,8,23,175,57
23960,-0.52978,-0.088379,-0.8220200000000001,8,23,175,57
23980,-0.51807,-0.0910639999999999,-0.83252,8,23,175,57
24000,-0.53833,0.22754,-0.80078,8,23,175,57
24020,-0.56812,0.39282,-0.6897,8,23,175,57
24040,-0.55347,0.448,-0.6391600000000001,8,23,175,57
24060,-0.56397,0.44043,-0.64844,8,23,175,57
24080,-0.52368,-0.079834,-0.8220200000000001,8,23,175,57
24100,-0.52954,-0.08667,-0.8291,8,23,175,57
24120,-0.4511699999999999,-0.18555,-0.8557100000000001,8,23,175,57
24140,-0.4602,-0.18628,-0.85449,8,23,175,57
24160,-0.6662600000000001,-0.038574,-0.73047,8,23,175,57
24180,-0.67456,0.37842,-0.55713,8,23,175,57
24200,-0.54004,-0.017578,-0.8164100000000001,8,23,175,57
24220,-0.5271,-0.09082,-0.80835,8,23,175,57
24240,-0.5151399999999999,-0.10693,-0.82983,8,23,175,57
24260,-0.4523899999999999,-0.21509,-0.8476600000000001,8,23,175,57
24280,-0.4545899999999999,-0.090332,-0.8674299999999999,8,23,175,57
24300,-0.5483399999999999,0.45483,-0.64917,8,23,175,57
24320,-0.64844,0.48608,-0.55884,8,23,175,57
24340,-0.45264,-0.22607,-0.8449700000000001,8,23,175,57
24360,-0.45313,-0.077148,-0.86426,8,23,175,57
24380,-0.65478,-0.057373,-0.72583,8,23,175,57
24400,-0.69605,-0.035889,-0.69043,8,23,175,57
24420,-0.64844,0.479,-0.5451699999999999,8,23,175,57
24440,-0.44531,-0.2312,-0.85254,8,23,175,57
24460,-0.52881,0.41064,-0.71045,8,23,175,57
24480,-0.61157,0.3894,-0.64331,8,23,175,57
24500,-0.479,-0.092041,-0.8584,8,23,175,57
24520,-0.6975100000000001,0.16748,-0.56055,8,23,175,57
24540,-0.51294,-0.10327,-0.82031,8,23,175,57
24560,-0.4563,-0.18555,-0.85962,8,23,175,57
24580,-0.45337,-0.072266,-0.86841,8,23,175,57
24600,-0.55176,0.45435,-0.6755399999999999,8,23,175,57
24620,-0.45483,-0.21973,-0.84985,8,23,175,57
24640,-0.44995,-0.18359,-0.8523,8,23,175,57
24660,-0.6936,0.25684,-0.60327,8,23,175,57
24680,-0.4585,-0.0852049999999999,-0.86255,8,23,175,57
24700,-0.48096,-0.0979,-0.85767,8,23,175,57
24720,-0.76148,-0.028076,-0.64258,8,23,175,57
24740,-0.65894,-0.022949,-0.72705,8,23,175,57
24760,-0.53418,-0.088135,-0.81397,8,23,175,57
24780,-0.62158,0.08374,-0.76489,8,23,175,57
24800,-0.72388,0.18945,-0.60523,8,23,175,57
24820,-0.47363,-0.090332,-0.85059,8,23,175,57
24840,-0.51074,-0.1079099999999999,-0.83105,8,23,175,57
24860,-0.71875,0.018311,-0.64893,8,23,175,57
24880,-0.81348,0.031494,-0.53565,8,23,175,57
24900,-0.45801,-0.22925,-0.83667,8,23,175,57
24920,-0.52466,-0.1132799999999999,-0.81494,8,23,175,57
24940,-0.45142,-0.23633,-0.84106,8,23,175,57
24960,-0.45288,-0.22778,-0.8403299999999999,8,23,175,57
24980,-0.54883,0.009521,-0.79395,8,23,175,57
25000,-0.45825,-0.19287,-0.85645,8,23,175,57
25020,-0.45337,-0.2289999999999999,-0.84985,8,23,175,57
25040,-0.4565399999999999,-0.22461,-0.85156,8,23,175,57
25060,-0.5332,-0.1189,-0.82373,8,23,175,57
25080,-0.45386,-0.22925,-0.86206,8,23,175,57
25100,-0.46118,-0.18042,-0.8593799999999999,8,23,175,57
25120,-0.5393100000000001,0.019287,-0.8252,8,23,175,57
25140,-0.45874,-0.074219,-0.86572,8,23,175,57
25160,-0.81812,0.12378,-0.521,8,23,175,57
25180,-0.4511699999999999,-0.17822,-0.8554700000000001,8,23,175,57
25200,-0.80347,-0.009033,-0.54956,8,23,175,57
25220,-0.4523899999999999,-0.086426,-0.86621,8,23,175,57
25240,-0.45776,-0.22461,-0.8469200000000001,8,23,175,57
25260,-0.52466,-0.086914,-0.8200700000000001,8,23,175,57
25280,-0.69067,0.33105,-0.59155,8,23,175,57
25300,-0.45508,-0.2241199999999999,-0.8403299999999999,8,23,175,57
25320,-0.69067,0.027832,-0.68457,8,23,175,57
25340,-0.5705600000000001,-0.21216,-0.77173,8,23,175,57
25360,-0.4523899999999999,-0.082275,-0.8696299999999999,8,23,175,57
25380,-0.52368,-0.10693,-0.81274,8,23,175,57
25400,-0.63135,0.12671,-0.7226600000000001,8,23,175,57
25420,-0.45679,-0.18408,-0.8608399999999999,8,23,175,57
25440,-0.5776399999999999,0.07666,-0.7727,8,23,175,57
25460,-0.4511699999999999,-0.086182,-0.87451,8,23,175,57
25480,-0.52344,-0.1142599999999999,-0.82642,8,23,175,57
25500,-0.53198,-0.1228,-0.8269,8,23,175,57
25520,-0.81519,0.053955,-0.48926,8,23,175,57
25540,-0.63184,0.48169,-0.5376,8,23,175,57
25560,-0.5173300000000001,-0.11523,-0.84106,8,23,175,57
25580,-0.52246,-0.10669,-0.82544,8,23,175,57
25600,-0.70996,0.21533,-0.62256,8,23,175,57
25620,-0.71533,0.040527,-0.6682100000000001,8,23,175,57
25640,-0.5100100000000001,0.46167,-0.68897,8,23,175,57
25660,-0.58716,0.41943,-0.64917,8,23,175,57
25680,-0.52661,-0.083984,-0.83472,8,23,175,57
25700,-0.66919,0.17285,-0.68994,8,23,175,57
25720,-0.4523899999999999,-0.23169,-0.8430200000000001,8,23,175,57
25740,-0.63257,0.3977,-0.65454,8,23,175,57
25760,-0.45874,-0.18433,-0.85767,8,23,175,57
25780,-0.4450699999999999,-0.077148,-0.86206,8,23,175,57
25800,-0.53272,-0.12988,-0.81274,8,23,175,57
25820,-0.6481899999999999,0.26611,-0.6452600000000001,8,23,175,57
25840,-0.4895,-0.1132799999999999,-0.84106,8,23,175,57
25860,-0.44678,-0.2168,-0.85156,8,23,175,57
25880,-0.5173300000000001,-0.11231,-0.83325,8,23,175,57
25900,-0.45435,-0.22095,-0.8374,8,23,175,57
25920,-0.45825,-0.22974,-0.8422799999999999,8,23,175,57
25940,-0.4523899999999999,-0.083984,-0.8691399999999999,8,23,175,57
25960,-0.7077600000000001,0.008301,-0.6735800000000001,8,23,175,57
25980,-0.4563,-0.18604,-0.84546,8,23,175,57
26000,-0.4462899999999999,-0.087402,-0.8728,8,23,175,57
26020,-0.47217,-0.099365,-0.86255,8,23,175,57
26040,-0.66113,0.03125,-0.70825,8,23,175,57
26060,-0.52222,-0.11231,-0.8261700000000001,8,23,175,57
26080,-0.4523899999999999,-0.22876,-0.8486299999999999,8,23,175,57
26100,-0.5976600000000001,0.010254,-0.7658699999999999,8,23,175,57
26120,-0.69067,0.14282,-0.69287,8,23,175,57
26140,-0.52808,0.48828,-0.63379,8,23,175,57
26160,-0.5512699999999999,0.54004,-0.5734899999999999,8,23,175,57
26180,-0.4504399999999999,-0.19312,-0.8667,8,23,175,57
26200,-0.6350100000000001,0.09082,-0.7356,8,23,175,57
26220,-0.6626,0.39355,-0.59424,8,23,175,57
26240,-0.4545899999999999,-0.22241,-0.85278,8,23,175,57
26260,-0.49121,0.25073,-0.80273,8,23,175,57
26280,-0.60327,0.1936,-0.72241,8,23,175,57
26300,-0.45679,-0.18262,-0.8640100000000001,8,23,175,57
26320,-0.45142,-0.22046,-0.8593799999999999,8,23,175,57
26340,-0.5483399999999999,0.49414,-0.5061,8,23,175,57
26360,-0.51636,-0.1098599999999999,-0.8398399999999999,8,23,175,57
26380,-0.68506,0.2793,-0.7561,8,23,175,57
26400,-0.56274,0.40894,-0.6814,8,23,175,57
26420,-0.45679,-0.22803,-0.85083,8,23,175,57
26440,-0.65161,0.10156,-0.7067899999999999,8,23,175,57
26460,-0.5144,-0.0971679999999999,-0.8327600000000001,8,23,175,57
26480,-0.4519,-0.0791019999999999,-0.8737799999999999,8,23,175,57
26500,-0.4572699999999999,-0.18677,-0.8584,8,23,175,57
26520,-0.51782,-0.10864,-0.81738,8,23,175,57
26540,-0.49365,0.45972,-0.7075199999999999,8,23,175,57
26560,-0.68286,0.18384,-0.65161,8,23,175,57
26580,-0.6088899999999999,0.39282,-0.63745,8,23,175,57
26600,-0.6459999999999999,0.1655299999999999,-0.7002,8,23,175,57
26620,-0.44556,-0.22241,-0.8593799999999999,8,23,175,57
26640,-0.45557,-0.21973,-0.84155,8,23,175,57
26660,-0.52393,-0.11133,-0.82471,8,23,175,57
26680,-0.45532,-0.2368199999999999,-0.84424,8,23,175,57
26700,-0.6469699999999999,-0.10669,-0.7360800000000001,8,23,175,57
26720,-0.52588,-0.08667,-0.82471,8,23,175,57
26740,-0.94458,0.61426,0.61035,8,23,175,57
26760,-0.52051,-0.1062,-0.83081,9,55,187,101
26780,-0.43872,-0.083984,-0.8696299999999999,9,55,187,101
26800,-0.5485800000000001,0.43433,-0.66943,9,55,187,101
26820,-0.44873,-0.22388,-0.84473,9,55,187,101
26840,-0.59351,0.07251,-0.7771,9,55,187,101
26860,-0.7407199999999999,0.13867,-0.5080600000000001,9,55,187,101
26880,-0.55518,0.055176,-0.79932,9,55,187,101
26900,-0.66992,0.017578,-0.6987300000000001,9,55,187,101
26920,-0.60523,0.016846,-0.77978,9,55,187,101
26940,-0.59815,0.4209,-0.6674800000000001,9,55,187,101
26960,-0.57715,0.45435,-0.6330600000000001,9,55,187,101
26980,-0.52905,-0.1223099999999999,-0.81665,9,55,187,101
27000,-0.45435,-0.2207,-0.84619,9,55,187,101
27020,-0.5647,0.45508,-0.6389199999999999,9,55,187,101
27040,-0.61182,0.39624,-0.64185,9,55,187,101
27060,-0.53101,-0.080811,-0.82178,9,55,187,101
27080,-0.51758,0.43359,-0.67602,9,55,187,101
27100,-0.66089,0.16016,-0.70972,9,55,187,101
27120,-0.62158,0.28833,-0.66235,9,55,187,101
27140,-0.44605,-0.072021,-0.88013,9,55,187,101
27160,-0.5505399999999999,0.43066,-0.65747,9,55,187,101
27180,-0.5512699999999999,0.097168,-0.79565,9,55,187,101
27200,-0.5271,-0.10449,-0.8378899999999999,9,55,187,101
27220,-0.51563,-0.0979,-0.83594,9,55,187,101
27240,-0.68188,0.14819,-0.68433,9,55,187,101
27260,-0.45483,-0.18188,-0.8552299999999999,9,55,187,101
27280,-0.4572699999999999,-0.22925,-0.8486299999999999,9,55,187,101
27300,-0.6023,0.44336,-0.6350100000000001,9,55,187,101
27320,-0.45581,-0.081055,-0.86597,9,55,187,101
27340,-0.53149,-0.1355,-0.83057,9,55,187,101
27360,-0.6359899999999999,0.36865,-0.58691,9,55,187,101
27380,-0.52246,-0.11108,-0.82935,9,55,187,101
27400,-0.6655300000000001,0.35962,-0.61182,9,55,187,101
27420,-0.44702,-0.080811,-0.86597,9,55,187,101
27440,-0.70703,0.047852,-0.65137,9,55,187,101
27460,-0.52344,-0.084961,-0.8252,9,55,187,101
27480,-0.45532,-0.2241199999999999,-0.8486299999999999,9,55,187,101
27500,-0.44409,-0.2229,-0.84619,9,55,187,101
27520,-0.52661,-0.0910639999999999,-0.82178,9,55,187,101
27540,-0.68335,0.057617,-0.66992,9,55,187,101
27560,-0.4572699999999999,-0.18286,-0.85156,9,55,187,101
27580,-0.69263,0.22095,-0.62451,9,55,187,101
27600,-0.53027,-0.086182,-0.8222700000000001,9,55,187,101
27620,-0.45557,-0.22388,-0.8513200000000001,9,55,187,101
27640,-0.44971,-0.22583,-0.83862,9,55,187,101
27660,-0.53882,-0.092285,-0.81445,9,55,187,101
27680,-0.45727,0.31787,-0.7702600000000001,9,55,187,101
27700,-0.60815,0.40039,-0.6438,9,55,187,101
27720,-0.51465,-0.1079099999999999,-0.802,9,55,187,101
27740,-0.45483,-0.22705,-0.8537600000000001,9,55,187,101
27760,-0.67188,0.018311,-0.73193,9,55,187,101
27780,-0.49048,-0.091309,-0.85034,9,55,187,101
27800,-0.52832,-0.12915,-0.82129,9,55,187,101
27820,-0.67602,0.13257,-0.68872,9,55,187,101
27840,-0.67407,0.074463,-0.68628,9,55,187,101
27860,-0.71948,0.15405,-0.6897,9,55,187,101
27880,-0.53174,-0.081299,-0.82275,9,55,187,101
27900,-0.64673,0.13965,-0.68652,9,55,187,101
27920,-0.52246,-0.1059599999999999,-0.82886,9,55,187,101
27940,-0.44898,-0.22363,-0.84351,9,55,187,101
27960,-0.5170899999999999,-0.11182,-0.8342299999999999,9,55,187,101
27980,-0.5219699999999999,-0.1037599999999999,-0.8281299999999999,9,55,187,101
28000,-0.47705,-0.089844,-0.8676799999999999,9,55,187,101
28020,-0.6665,0.28564,-0.66333,9,55,187,101
28040,-0.55591,0.15771,-0.79932,9,55,187,101
28060,-0.51685,-0.10645,-0.8303200000000001,9,55,187,101
28080,-0.45142,-0.0852049999999999,-0.8669399999999999,9,55,187,101
28100,-0.45386,-0.079346,-0.86572,9,55,187,101
28120,-0.52759,0.002686,-0.8313,9,55,187,101
28140,-0.51904,-0.10693,-0.8205600000000001,9,55,187,101
28160,-0.45142,-0.18506,-0.8562,9,55,187,101
28180,-0.59155,0.44336,-0.63721,9,55,187,101
28200,-0.45093,-0.080566,-0.8667,9,55,187,101
28220,-0.52637,-0.12451,-0.81201,9,55,187,101
28240,-0.56397,0.43286,-0.6359899999999999,9,55,187,101
28260,-0.5231899999999999,0.51855,-0.59155,9,55,187,101
28280,-0.45679,-0.23169,-0.8418,9,55,187,101
28300,-0.5188,-0.078857,-0.8320299999999999,9,55,187,101
28320,-0.5473600000000001,0.41919,-0.70239,9,55,187,101
28340,-0.45581,-0.23169,-0.8496100000000001,9,55,187,101
28360,-0.4616699999999999,-0.19067,-0.85278,9,55,187,101
28380,-0.52295,-0.12573,-0.82178,9,55,187,101
28400,-0.53052,-0.088379,-0.82178,9,55,187,101
28420,-0.5752,0.39185,-0.6674800000000001,9,55,187,101
28440,-0.47998,-0.099365,-0.85278,9,55,187,101
28460,-0.45947,-0.074219,-0.87231,9,55,187,101
28480,-0.50684,-0.12207,-0.83057,9,55,187,101
28500,-0.57227,0.39429,-0.68018,9,55,187,101
28520,-0.45508,-0.23193,-0.84131,9,55,187,101
28540,-0.5371100000000001,-0.016113,-0.81421,9,55,187,101
28560,-0.52588,-0.094971,-0.8225100000000001,9,55,187,101
28580,-0.5166,-0.09668,-0.8164100000000001,9,55,187,101
28600,-0.44482,-0.08667,-0.86377,9,55,187,101
28620,-0.48193,-0.09082,-0.86108,9,55,187,101
28640,-0.45776,-0.074219,-0.8689,9,55,187,101
28660,-0.5253899999999999,0.029541,-0.97607,9,55,187,101
28680,-0.6955600000000001,0.18701,-0.7014199999999999,9,55,187,101
28700,-0.5271,-0.0896,-0.8244600000000001,9,55,187,101
28720,-0.68994,0.34375,-0.5783699999999999,9,55,187,101
28740,-0.45215,-0.21973,-0.85449,9,55,187,101
28760,-0.45898,-0.082275,-0.87744,9,55,187,101
28780,-0.56519,0.479,-0.62378,9,55,187,101
28800,-0.45264,-0.081787,-0.8710899999999999,9,55,187,101
28820,-0.57715,0.47534,-0.60449,9,55,187,101
28840,-0.45337,-0.21973,-0.8510700000000001,9,55,187,101
28860,-0.45264,-0.23145,-0.83911,9,55,187,101
28880,-0.50732,-0.10059,-0.84106,9,55,187,101
28900,-0.44702,-0.074707,-0.87329,9,55,187,101
28920,-0.4597199999999999,-0.17773,-0.86621,9,55,187,101
28940,-0.5512699999999999,0.097168,-0.79565,9,55,187,101
28960,-0.6765100000000001,-0.080566,-0.7045899999999999,9,55,187,101
28980,-0.49976,0.039307,-0.7644,9,55,187,101
29000,-0.45093,-0.22632,-0.8537600000000001,9,55,187,101
29020,-0.63818,0.32764,-0.69653,9,55,187,101
29040,-0.47046,-0.093994,-0.8356899999999999,9,55,187,101
29060,-0.52393,-0.12866,-0.7983399999999999,9,55,187,101
29080,-0.4443399999999999,-0.0754389999999999,-0.86035,9,55,187,101
29100,-0.72192,0.21704,-0.6330600000000001,9,55,187,101
29120,-0.45361,-0.19482,-0.87964,9,55,187,101
29140,-0.47681,-0.086914,-0.8471700000000001,9,55,187,101
29160,-0.59497,0.1875,-0.73657,9,55,187,101
29180,-0.81445,0.034668,-0.5202600000000001,9,55,187,101
29200,-0.4479999999999999,-0.2282699999999999,-0.8479,9,55,187,101
29220,-0.4541,-0.18457,-0.8593799999999999,9,55,187,101
29240,-0.53076,-0.088379,-0.82178,9,55,187,101
29260,-0.4707,-0.096191,-0.84644,9,55,187,101
29280,-0.45557,-0.079834,-0.86792,9,55,187,101
29300,-0.52417,-0.1084,-0.83301,9,55,187,101
29320,-0.46924,-0.0979,-0.84644,9,55,187,101
29340,-0.6748,-0.01001,-0.71265,9,55,187,101
29360,-0.6794399999999999,0.076172,-0.70117,9,55,187,101
29380,-0.5669,0.52856,-0.57031,9,55,187,101
29400,-0.61841,0.027588,-0.7692899999999999,9,55,187,101
29420,-0.68823,0.22461,-0.65283,9,55,187,101
29440,-0.52344,-0.087402,-0.81714,9,55,187,101
29460,-0.50952,0.096191,-0.83716,9,55,187,101
29480,-0.5271,-0.08667,-0.8225100000000001,9,55,187,101
29500,-0.45093,-0.0832519999999999,-0.8833,9,55,187,101
29520,-0.75635,0.042725,-0.62231,9,55,187,101
29540,-0.54956,0.46851,-0.64844,9,55,187,101
29560,-0.6294,0.13794,-0.73828,9,55,187,101
29580,-0.52246,-0.10815,-0.81958,9,55,187,101
29600,-0.53101,-0.088867,-0.8320299999999999,9,55,187,101
29620,-0.53052,-0.12524,-0.8242200000000001,9,55,187,101
29640,-0.8378899999999999,0.015381,-0.47192,9,55,187,101
29660,-0.45361,-0.22315,-0.8396,9,55,187,101
29680,-0.45166,-0.083496,-0.87085,9,55,187,101
29700,-0.6411100000000001,0.10791,-0.73145,9,55,187,101
29720,-0.52368,-0.086182,-0.81543,9,55,187,101
29740,-0.45483,-0.077148,-0.87451,9,55,187,101
29760,-0.45874,-0.22583,-0.83935,9,55,187,101
29780,-0.45483,-0.076172,-0.8691399999999999,9,55,187,101
29800,-0.45337,-0.21973,-0.8510700000000001,9,55,187,101
29820,-0.75098,0.094238,-0.52661,9,55,187,101
29840,-0.4763199999999999,-0.0930179999999999,-0.8532700000000001,9,55,187,101
29860,-0.45386,-0.18848,-0.86572,9,55,187,101
29880,-0.53272,-0.08374,-0.8164100000000001,9,55,187,101
29900,-0.5058600000000001,0.0832519999999999,-0.8342299999999999,9,55,187,101
29920,-0.53394,0.068115,-0.8205600000000001,9,55,187,101
29940,-0.5664100000000001,0.44605,-0.65918,9,55,187,101
29960,-0.6272,0.16284,-0.67261,10,23,177,75
29980,-0.68579,0.38452,-0.58105,10,23,177,75
30000,-0.45776,-0.19067,-0.86426,10,23,177,75
30020,-0.52783,-0.08374,-0.82031,10,23,177,75
30040,-0.67602,-0.01001,-0.71704,10,23,177,75
30060,-0.45142,-0.1735799999999999,-0.85083,10,23,177,75
30080,-0.71973,0.039307,-0.63281,10,23,177,75
30100,-0.45142,-0.084473,-0.8645,10,23,177,75
30120,-0.53394,-0.0852049999999999,-0.8205600000000001,10,23,177,75
30140,-0.69434,0.02124,-0.6665,10,23,177,75
30160,-0.50879,-0.094238,-0.81494,10,23,177,75
30180,-0.7583,-0.035889,-0.68115,10,23,177,75
30200,-0.4631399999999999,-0.22876,-0.84399,10,23,177,75
30220,-0.56494,0.45483,-0.63843,10,23,177,75
30240,-0.7102,0.19214,-0.60547,10,23,177,75
30260,-0.6018100000000001,0.43457,-0.6401399999999999,10,23,177,75
30280,-0.7329100000000001,0.036865,-0.65552,10,23,177,75
30300,-0.51977,-0.10962,-0.8239799999999999,10,23,177,75
30320,-0.45947,-0.22803,-0.8491200000000001,10,23,177,75
30340,-0.85498,0.11694,-0.7014199999999999,10,23,177,75
30360,-0.14697,0.53296,-0.7067899999999999,10,23,177,75
30380,-0.52466,-0.11035,-0.82568,10,23,177,75
30400,-0.53345,-0.13037,-0.81567,10,23,177,75
30420,-0.52637,-0.078369,-0.82178,10,23,177,75
30440,-0.4482399999999999,-0.088623,-0.8654799999999999,10,23,177,75
30460,-0.4545899999999999,-0.0754389999999999,-0.8720700000000001,10,23,177,75
30480,-0.45386,-0.076904,-0.8696299999999999,10,23,177,75
30500,-0.73242,0.1333,-0.6682100000000001,10,23,177,75
30520,-0.6169399999999999,0.33594,-0.67065,10,23,177,75
30540,-0.65088,0.22681,-0.66675,10,23,177,75
30560,-0.51807,-0.1049799999999999,-0.82324,10,23,177,75
30580,-0.66455,0.078369,-0.69995,10,23,177,75
30600,-0.6716300000000001,0.34351,-0.62744,10,23,177,75
30620,-0.45483,-0.22266,-0.8356899999999999,10,23,177,75
30640,-0.6955600000000001,0.24951,-0.64917,10,23,177,75
30660,-0.6088899999999999,0.39282,-0.63745,10,23,177,75
30680,-0.63818,-0.025879,-0.73169,10,23,177,75
30700,-0.53906,0.50122,-0.63184,10,23,177,75
30720,-0.53003,-0.10059,-0.8234899999999999,10,23,177,75
30740,-0.45996,-0.22534,-0.85205,10,23,177,75
30760,-0.62012,-0.007568,-0.75684,10,23,177,75
30780,-0.5293,-0.12988,-0.81274,10,23,177,75
30800,-0.53101,0.009277,-0.83057,10,23,177,75
30820,-0.6831,0.22925,-0.64746,10,23,177,75
30840,-0.71875,0.19312,-0.61816,10,23,177,75
30860,-0.56616,0.36206,-0.69995,10,23,177,75
30880,-0.46118,-0.078613,-0.8789100000000001,10,23,177,75
30900,-0.62476,0.37964,-0.63989,10,23,177,75
30920,-0.48218,-0.0930179999999999,-0.86255,10,23,177,75
30940,-0.4572699999999999,-0.085938,-0.8737799999999999,10,23,177,75
30960,-0.62744,0.13696,-0.7338899999999999,10,23,177,75
30980,-0.7998,0.0695799999999999,-0.42505,10,23,177,75
31000,-0.4502,-0.22632,-0.85083,10,23,177,75
31020,-0.53809,0.23389,-0.7702600000000001,10,23,177,75
31040,-0.4541,-0.2229,-0.84009,10,23,177,75
31060,-0.47339,-0.0893549999999999,-0.8537600000000001,10,23,177,75
31080,-0.56323,0.45239,-0.63477,10,23,177,75
31100,-0.69263,0.22095,-0.62451,10,23,177,75
31120,-0.45679,-0.22339,-0.8532700000000001,10,23,177,75
31140,-0.45093,-0.22632,-0.8537600000000001,10,23,177,75
31160,-0.4523899999999999,-0.22363,-0.84888,10,23,177,75
31180,-0.42871,0.22217,-0.87134,10,23,177,75
31200,-0.45435,-0.22095,-0.8374,10,23,177,75
31220,-0.45386,-0.22266,-0.8430200000000001,10,23,177,75
31240,-0.61328,0.15869,-0.81128,10,23,177,75
31260,-0.68042,0.1023,-0.72437,10,23,177,75
31280,-0.5212399999999999,-0.09082,-0.81397,10,23,177,75
31300,-0.5253899999999999,-0.087402,-0.823,10,23,177,75
31320,-0.51148,0.073242,-0.87451,10,23,177,75
31340,-0.45679,-0.18579,-0.86475,10,23,177,75
31360,-0.573,0.4729,-0.59741,10,23,177,75
31380,-0.51977,-0.1098599999999999,-0.82275,10,23,177,75
31400,-0.4482399999999999,-0.2229,-0.84741,10,23,177,75
31420,-0.50781,-0.10547,-0.8317899999999999,10,23,177,75
31440,-0.73682,0.1106,-0.66968,10,23,177,75
31460,-0.52344,-0.125,-0.82324,10,23,177,75
31480,-0.5393100000000001,-0.016357,-0.81885,10,23,177,75
31500,-0.44898,-0.080078,-0.8764700000000001,10,23,177,75
31520,-0.45679,-0.22388,-0.84839,10,23,177,75
31540,-0.5253899999999999,-0.088135,-0.81909,10,23,177,75
31560,-0.51685,-0.11108,-0.81274,10,23,177,75
31580,-0.53198,0.43481,-0.65405,10,23,177,75
31600,-0.81445,0.034668,-0.5202600000000001,10,23,177,75
31620,-0.63013,0.13208,-0.72485,10,23,177,75
31640,-0.45386,-0.078369,-0.8667,10,23,177,75
31660,-0.56397,0.39502,-0.6713899999999999,10,23,177,75
31680,-0.4602,-0.18604,-0.86206,10,23,177,75
31700,-0.45581,-0.18799,-0.85254,10,23,177,75
31720,-0.50366,0.44165,-0.7299800000000001,10,23,177,75
31740,-0.5161100000000001,-0.11255,-0.8313,10,23,177,75
31760,-0.52075,-0.094482,-0.81274,10,23,177,75
31780,-0.69458,0.051514,-0.6272,10,23,177,75
31800,-0.53638,-0.12012,-0.81421,10,23,177,75
31820,-0.5249,-0.13574,-0.8169,10,23,177,75
31840,-0.44653,-0.082764,-0.86621,10,23,177,75
31860,-0.57153,-0.008057,-0.8024899999999999,10,23,177,75
31880,-0.4523899999999999,-0.072266,-0.87256,10,23,177,75
31900,-0.45142,-0.23169,-0.8471700000000001,10,23,177,75
31920,-0.44995,-0.084473,-0.8669399999999999,10,23,177,75
31940,-0.44922,-0.18262,-0.85278,10,23,177,75
31960,-0.4565399999999999,-0.18213,-0.8205600000000001,10,23,177,75
31980,-0.51172,0.42895,-0.70044,10,23,177,75
32000,-0.51294,-0.10327,-0.82031,10,23,177,75
32020,-0.51977,-0.11035,-0.8364299999999999,10,23,177,75
32040,-0.5141600000000001,-0.10669,-0.82471,10,23,177,75
32060,-0.55835,-0.1140099999999999,-0.7973600000000001,10,23,177,75
32080,-0.43945,0.15234,-0.91992,10,23,177,75
32100,-0.7338899999999999,0.20044,-0.43799,10,23,177,75
32120,-0.48193,-0.097412,-0.86035,10,23,177,75
32140,-0.52515,-0.086182,-0.8252,10,23,177,75
32160,-0.5109899999999999,-0.099121,-0.8408200000000001,10,23,177,75
32180,-0.52685,-0.1223099999999999,-0.81567,10,23,177,75
32200,-0.5173300000000001,-0.10303,-0.83154,10,23,177,75
32220,-0.4523899999999999,-0.088623,-0.8696299999999999,10,23,177,75
32240,-0.6601600000000001,0.39087,-0.5835,10,23,177,75
32260,-0.51807,-0.1049799999999999,-0.82324,10,23,177,75
32280,-0.65552,0.058594,-0.69458,10,23,177,75
32300,-0.4541,-0.22778,-0.85205,10,23,177,75
32320,-0.45898,-0.082764,-0.8764700000000001,10,23,177,75
32340,-0.4624,-0.18188,-0.8608399999999999,10,23,177,75
32360,-0.53027,-0.087402,-0.8169,10,23,177,75
32380,-0.4609399999999999,-0.18457,-0.8584,10,23,177,75
32400,-0.45874,-0.21875,-0.8523,10,23,177,75
32420,-0.45313,-0.22241,-0.84741,10,23,177,75
32440,-0.52978,-0.0896,-0.81958,10,23,177,75
32460,-0.53369,-0.091553,-0.81445,10,23,177,75
32480,-0.50879,0.42236,-0.72363,10,23,177,75
32500,-0.44605,-0.2273,-0.8510700000000001,10,23,177,75
32520,-0.44751,-0.22949,-0.8518100000000001,10,23,177,75
32540,-0.5141600000000001,-0.1145,-0.82471,10,23,177,75
32560,-0.56494,0.42895,-0.66065,10,23,177,75
32580,-0.45923,-0.18091,-0.85864,10,23,177,75
32600,-0.6023,0.14722,-0.7583,10,23,177,75
32620,-0.68848,0.0896,-0.68481,10,23,177,75
32640,-0.53613,0.40015,-0.68335,10,23,177,75
32660,-0.73682,0.21118,-0.59692,10,23,177,75
32680,-0.45801,-0.18237,-0.85205,10,23,177,75
32700,-0.5161100000000001,-0.092773,-0.8381299999999999,10,23,177,75
32720,-0.5293,-0.090088,-0.8125,10,23,177,75
32740,-0.65942,0.35962,-0.6137699999999999,10,23,177,75
32760,-0.53125,-0.087891,-0.8198200000000001,10,23,177,75
32780,-0.52685,-0.12744,-0.82178,10,23,177,75
32800,-0.62769,0.18677,-0.58618,10,23,177,75
32820,-0.5200199999999999,-0.1062,-0.8303200000000001,10,23,177,75
32840,-0.4511699999999999,-0.071045,-0.8689,10,23,177,75
32860,-0.50952,-0.11304,-0.8335,10,23,177,75
32880,-0.45532,-0.22705,-0.8449700000000001,10,23,177,75
32900,-0.5979,0.35181,-0.65649,10,23,177,75
32920,-0.6665,0.13745,-0.6687,10,23,177,75
32940,-0.4502,-0.22974,-0.8457,10,23,177,75
32960,-0.54175,0.49707,-0.58643,10,23,177,75
32980,-0.45093,-0.0815429999999999,-0.86426,10,23,177,75
33000,-0.53272,-0.13477,-0.82153,10,23,177,75
33020,-0.4565399999999999,-0.074463,-0.8689,10,23,177,75
33040,-0.44995,-0.084473,-0.8669399999999999,10,23,177,75
33060,-0.62695,0.29761,-0.6674800000000001,10,23,177,75
33080,-0.44678,-0.21802,-0.8496100000000001,10,23,177,75
33100,-0.45142,-0.0815429999999999,-0.8764700000000001,10,23,177,75
33120,-0.45581,-0.081055,-0.86597,10,23,177,75
33140,-0.48315,-0.095215,-0.8557100000000001,10,23,177,75
33160,-0.60693,0.24219,-0.70313,10,23,177,75
33180,-0.60693,0.40332,-0.6423300000000001,10,23,177,75
33200,-0.50293,0.46655,-0.6765100000000001,10,23,177,75
33220,-0.4572699999999999,-0.2251,-0.8510700000000001,10,23,177,75
33240,-0.53149,-0.075928,-0.8291,10,23,177,75
33260,-0.44946,-0.18579,-0.8537600000000001,10,23,177,75
33280,-0.52515,-0.1140099999999999,-0.8337399999999999,10,23,177,75
33300,-0.81592,0.031982,-0.51343,10,23,177,75
33320,-0.51758,-0.10815,-0.82275,10,23,177,75
33340,-0.65894,0.34595,-0.61328,10,23,177,75
33360,-0.71533,0.008789,-0.604,10,23,177,75
33380,-0.5918,0.1001,-0.68872,10,23,177,75
33400,-0.62353,-0.010254,-0.7612300000000001,10,23,177,75
33420,-0.51367,-0.090576,-0.8317899999999999,10,23,177,75
33440,-0.72388,0.28589,-0.5686,10,23,177,75
33460,-0.45581,-0.23023,-0.8430200000000001,11,26,169,94
33480,-0.5837399999999999,0.099609,-0.78687,11,26,169,94
33500,-0.73242,0.1333,-0.6682100000000001,11,26,169,94
33520,-0.68726,0.12793,-0.70923,11,26,169,94
33540,-0.51855,-0.1049799999999999,-0.82153,11,26,169,94
33560,-0.51221,-0.12158,-0.8261700000000001,11,26,169,94
33580,-0.45142,-0.22583,-0.84741,11,26,169,94
33600,-0.5737300000000001,0.074707,-0.76904,11,26,169,94
33620,-0.5109899999999999,0.064697,-0.8430200000000001,11,26,169,94
33640,-0.5271,-0.10645,-0.82886,11,26,169,94
33660,-0.7771,-0.016602,-0.58643,11,26,169,94
33680,-0.45679,-0.18506,-0.85596,11,26,169,94
33700,-0.51831,0.50732,-0.61279,11,26,169,94
33720,-0.5393100000000001,-0.10254,-0.8205600000000001,11,26,169,94
33740,-0.68799,0.13501,-0.67505,11,26,169,94
33760,-0.45337,-0.084717,-0.8693799999999999,11,26,169,94
33780,-0.52441,-0.1098599999999999,-0.8222700000000001,11,26,169,94
33800,-0.45947,-0.18799,-0.8669399999999999,11,26,169,94
33820,-0.54468,0.039551,-0.81421,11,26,169,94
33840,-0.45581,-0.078369,-0.875,11,26,169,94
33860,-0.53467,-0.086426,-0.81812,11,26,169,94
33880,-0.5466300000000001,0.46558,-0.64722,11,26,169,94
33900,-0.65967,0.34058,-0.62134,11,26,169,94
33920,-0.69531,0.13525,-0.65772,11,26,169,94
33940,-0.53394,-0.1132799999999999,-0.8339799999999999,11,26,169,94
33960,-0.45288,-0.22754,-0.8430200000000001,11,26,169,94
33980,-0.45679,-0.22583,-0.8557100000000001,11,26,169,94
34000,-0.69702,0.008301,-0.66528,11,26,169,94
34020,-0.5412600000000001,0.43213,-0.68481,11,26,169,94
34040,-0.45825,-0.21899,-0.8588899999999999,11,26,169,94
34060,-0.4462899999999999,-0.079346,-0.86792,11,26,169,94
34080,-0.71606,0.22778,-0.62183,11,26,169,94
34100,-0.68774,0.04126,-0.7085,11,26,169,94
34120,-0.65625,0.20972,-0.6721199999999999,11,26,169,94
34140,-0.55591,0.15771,-0.79932,11,26,169,94
34160,-0.52344,-0.12671,-0.8042,11,26,169,94
34180,-0.44751,-0.2221699999999999,-0.8476600000000001,11,26,169,94
34200,-0.45996,-0.22241,-0.84277,11,26,169,94
34220,-0.53662,-0.12524,-0.823,11,26,169,94
34240,-0.76245,0.07251,-0.58301,11,26,169,94
34260,-0.52808,-0.086182,-0.81592,11,26,169,94
34280,-0.72949,0.12256,-0.63232,11,26,169,94
34300,-0.45166,-0.22607,-0.8557100000000001,11,26,169,94
34320,-0.45874,-0.080322,-0.86865,11,26,169,94
34340,-0.53125,-0.076416,-0.81103,11,26,169,94
34360,-0.68945,0.46289,-0.56763,11,26,169,94
34380,-0.58301,0.0778809999999999,-0.7793,11,26,169,94
34400,-0.5105,-0.11182,-0.8398399999999999,11,26,169,94
34420,-0.50098,0.25903,-0.76977,11,26,169,94
34440,-0.6416,0.30029,-0.6831,11,26,169,94
34460,-0.47241,-0.090088,-0.85059,11,26,169,94
34480,-0.53125,-0.0791019999999999,-0.82788,11,26,169,94
34500,-0.44605,-0.081055,-0.87915,11,26,169,94
34520,-0.45483,-0.23071,-0.85156,11,26,169,94
34540,-0.53003,-0.10425,-0.82129,11,26,169,94
34560,-0.45679,-0.22485,-0.8449700000000001,11,26,169,94
34580,-0.5273399999999999,-0.086182,-0.8281299999999999,11,26,169,94
34600,-0.45898,-0.18042,-0.85083,11,26,169,94
34620,-0.57227,0.47583,-0.5957,11,26,169,94
34640,-0.48926,0.4292,-0.6782199999999999,11,26,169,94
34660,-0.46069,-0.22168,-0.8469200000000001,11,26,169,94
34680,-0.53076,-0.12915,-0.8186,11,26,169,94
34700,-0.45703,-0.18286,-0.85693,11,26,169,94
34720,-0.45752,-0.078369,-0.8728,11,26,169,94
34740,-0.53101,-0.08252,-0.81934,11,26,169,94
34760,-0.5112300000000001,-0.068115,-0.84546,11,26,169,94
34780,-0.45264,-0.076904,-0.86426,11,26,169,94
34800,-0.4545899999999999,-0.075684,-0.8715799999999999,11,26,169,94
34820,-0.71948,0.2727,-0.56934,11,26,169,94
34840,-0.69775,0.2373,-0.61548,11,26,169,94
34860,-0.45142,-0.084229,-0.87695,11,26,169,94
34880,-0.45776,-0.18262,-0.8696299999999999,11,26,169,94
34900,-0.44898,-0.2356,-0.84888,11,26,169,94
34920,-0.4812,-0.096191,-0.84473,11,26,169,94
34940,-0.5473600000000001,0.50098,-0.62134,11,26,169,94
34960,-0.65356,0.35547,-0.62451,11,26,169,94
34980,-0.52588,-0.1132799999999999,-0.8300799999999999,11,26,169,94
35000,-0.51977,-0.13208,-0.8266600000000001,11,26,169,94
35020,-0.45386,-0.22485,-0.8422799999999999,11,26,169,94
35040,-0.45068,-0.17944,-0.8547399999999999,11,26,169,94
35060,-0.44727,-0.0832519999999999,-0.8693799999999999,11,26,169,94
35080,-0.47852,-0.088867,-0.8571799999999999,11,26,169,94
35100,-0.53418,-0.13013,-0.8085899999999999,11,26,169,94
35120,-0.54199,0.47192,-0.64355,11,26,169,94
35140,-0.51245,-0.10889,-0.82544,11,26,169,94
35160,-0.5170899999999999,-0.1140099999999999,-0.84009,11,26,169,94
35180,-0.65625,0.38086,-0.57031,11,26,169,94
35200,-0.45142,-0.22876,-0.84424,11,26,169,94
35220,-0.45142,-0.083984,-0.8689,11,26,169,94
35240,-0.6289100000000001,-0.052002,-0.74463,11,26,169,94
35260,-0.68994,0.057861,-0.66113,11,26,169,94
35280,-0.53052,-0.087646,-0.82715,11,26,169,94
35300,-0.54199,0.52515,-0.60523,11,26,169,94
35320,-0.47681,-0.18384,-0.83301,11,26,169,94
35340,-0.45361,-0.07666,-0.8742700000000001,11,26,169,94
35360,-0.72095,0.086426,-0.58911,11,26,169,94
35380,-0.44995,-0.1787099999999999,-0.8615700000000001,11,26,169,94
35400,-0.54443,-0.0976559999999999,-0.81616,11,26,169,94
35420,-0.4479999999999999,-0.22876,-0.84644,11,26,169,94
35440,-0.60254,-0.005859,-0.79199,11,26,169,94
35460,-0.4763199999999999,-0.095703,-0.8579100000000001,11,26,169,94
35480,-0.51782,-0.094482,-0.8198200000000001,11,26,169,94
35500,-0.5422399999999999,0.52051,-0.5744600000000001,11,26,169,94
35520,-0.5112300000000001,-0.11035,-0.82739,11,26,169,94
35540,-0.7128899999999999,0.30371,-0.55395,11,26,169,94
35560,-0.52832,-0.083984,-0.8205600000000001,11,26,169,94
35580,-0.52368,-0.1062,-0.8327600000000001,11,26,169,94
35600,-0.52075,-0.12964,-0.82275,11,26,169,94
35620,-0.61621,0.097412,-0.72022,11,26,169,94
35640,-0.52441,-0.1084,-0.823,11,26,169,94
35660,-0.5092800000000001,-0.095215,-0.82178,11,26,169,94
35680,-0.51782,-0.10864,-0.8239799999999999,11,26,169,94
35700,-0.46289,0.18213,-0.8471700000000001,11,26,169,94
35720,-0.70093,-0.032227,-0.66895,11,26,169,94
35740,-0.4504399999999999,-0.2282699999999999,-0.8469200000000001,11,26,169,94
35760,-0.62183,0.12354,-0.7417,11,26,169,94
35780,-0.47388,-0.092773,-0.8632799999999999,11,26,169,94
35800,-0.52441,-0.088135,-0.81592,11,26,169,94
35820,-0.4939,-0.076172,-0.84473,11,26,169,94
35840,-0.60547,0.014893,-0.75049,11,26,169,94
35860,-0.63403,0.12549,-0.7329100000000001,11,26,169,94
35880,-0.51318,0.43945,-0.67969,11,26,169,94
35900,-0.47876,-0.096436,-0.8469200000000001,11,26,169,94
35920,-0.45215,-0.083496,-0.86572,11,26,169,94
35940,-0.61157,0.3894,-0.64331,11,26,169,94
35960,-0.44995,-0.075684,-0.8772,11,26,169,94
35980,-0.5813,0.5471199999999999,-0.56152,11,26,169,94
36000,-0.47778,-0.087158,-0.84839,11,26,169,94
36020,-0.5192899999999999,-0.083496,-0.82544,11,26,169,94
36040,-0.49683,0.48511,-0.68042,11,26,169,94
36060,-0.45605,-0.17944,-0.8496100000000001,11,26,169,94
36080,-0.55957,0.37549,-0.6709,11,26,169,94
36100,-0.65942,0.13648,-0.6987300000000001,11,26,169,94
36120,-0.6755399999999999,0.11353,-0.7102,11,26,169,94
36140,-0.66309,-0.056885,-0.72046,11,26,169,94
36160,-0.4755899999999999,-0.0896,-0.8574200000000001,11,26,169,94
36180,-0.45361,-0.22119,-0.84546,11,26,169,94
36200,-0.45386,-0.071045,-0.8689,11,26,169,94
36220,-0.5161100000000001,-0.11255,-0.8313,11,26,169,94
36240,-0.45703,-0.2251,-0.83765,11,26,169,94
36260,-0.76221,0.028809,-0.55981,11,26,169,94
36280,-0.49072,0.20703,-0.8728,11,26,169,94
36300,-0.5253899999999999,-0.10889,-0.83301,11,26,169,94
36320,-0.53027,-0.087158,-0.8225100000000001,11,26,169,94
36340,-0.53223,-0.0832519999999999,-0.8295899999999999,11,26,169,94
36360,-0.55786,0.44482,-0.6408699999999999,11,26,169,94
36380,-0.7299800000000001,0.15479,-0.5996100000000001,11,26,169,94
36400,-0.45361,-0.22583,-0.8571799999999999,11,26,169,94
36420,-0.50977,-0.0910639999999999,-0.82935,11,26,169,94
36440,-0.71338,0.037598,-0.66943,11,26,169,94
36460,-0.63867,0.071533,-0.6655300000000001,11,26,169,94
36480,-0.53345,-0.084717,-0.81958,11,26,169,94
36500,-0.54932,-0.019775,-0.82178,11,26,169,94
36520,-0.45508,-0.1101099999999999,-0.8571799999999999,11,26,169,94
36540,-0.6782199999999999,0.082275,-0.6897,11,26,169,94
36560,-0.40234,0.11304,-0.8471700000000001,11,26,169,94
36580,-0.45313,-0.2251,-0.84985,11,26,169,94
36600,-0.44751,-0.0852049999999999,-0.86645,11,26,169,94
36620,-1.1743,0.18164,-0.56567,11,26,169,94
36640,-0.573,0.39648,-0.6682100000000001,11,26,169,94
36660,-0.65991,-0.056885,-0.72632,11,26,169,94
36680,-0.45142,-0.076904,-0.8728,11,26,169,94
36700,-0.45361,-0.2229,-0.85669,11,26,169,94
36720,-0.55591,0.20654,-0.78906,11,26,169,94
36740,-0.54956,0.31616,-0.8962399999999999,11,26,169,94
36760,-0.69702,0.45654,-0.50513,11,26,169,94
36780,-0.5151399999999999,0.51172,-0.69727,11,26,169,94
36800,-0.73657,0.20264,-0.6342800000000001,11,26,169,94
36820,-0.68262,0.36279,-0.61011,11,26,169,94
36840,-0.53345,-0.12036,-0.81348,11,26,169,94
36860,-0.54004,-0.020752,-0.80933,11,26,169,94
36880,-0.61719,0.35254,-0.61426,11,26,169,94
36900,-0.46069,-0.17847,-0.8259299999999999,11,26,169,94
36920,-0.47876,-0.089844,-0.8476600000000001,11,26,169,94
36940,-0.53003,-0.087646,-0.81128,11,26,169,94
36960,-0.52417,-0.093994,-0.81738,11,26,169,94
36980,-0.4616699999999999,-0.177,-0.8571799999999999,11,26,169,94
37000,-0.53687,0.021484,-0.8317899999999999,11,26,169,94
37020,-0.65552,0.12378,-0.71509,11,26,169,94
37040,-0.48438,-0.093262,-0.85498,11,26,169,94
37060,-0.61987,0.081299,-0.78735,11,26,169,94
37080,-0.45557,-0.2229,-0.8523,12,64,172,75
37100,-0.7106899999999999,0.10889,-0.66968,12,64,172,75
37120,-0.71875,0.018311,-0.64893,12,64,172,75
37140,-0.51636,0.4331100000000001,-0.67847,12,64,172,75
37160,-0.54932,-0.019775,-0.82178,12,64,172,75
37180,-0.52856,-0.085938,-0.82105,12,64,172,75
37200,-0.67407,0.19043,-0.69238,12,64,172,75
37220,-0.6733399999999999,0.33057,-0.6423300000000001,12,64,172,75
37240,-0.45679,-0.18555,-0.8593799999999999,12,64,172,75
37260,-0.53149,-0.088379,-0.82105,12,64,172,75
37280,-0.32398,0.063232,-0.9209,12,64,172,75
37300,-0.57886,0.38745,-0.65527,12,64,172,75
37320,-0.45557,-0.075684,-0.86841,12,64,172,75
37340,-0.5813,0.073242,-0.7700199999999999,12,64,172,75
37360,-0.53565,-0.088867,-0.82275,12,64,172,75
37380,-0.48047,-0.0976559999999999,-0.86279,12,64,172,75
37400,-0.72534,0.022217,-0.65503,12,64,172,75
37420,-0.47925,-0.090332,-0.86206,12,64,172,75
37440,-0.45386,-0.22534,-0.8537600000000001,12,64,172,75
37460,-0.60156,0.41553,-0.64136,12,64,172,75
37480,-0.71924,-0.020508,-0.65723,12,64,172,75
37500,-0.45679,-0.22754,-0.84351,12,64,172,75
37520,-0.45337,-0.2285199999999999,-0.8486299999999999,12,64,172,75
37540,-0.4458,-0.2285199999999999,-0.8547399999999999,12,64,172,75
37560,-0.44946,-0.21973,-0.8403299999999999,12,64,172,75
37580,-0.45776,-0.2241199999999999,-0.83716,12,64,172,75
37600,-0.6733399999999999,0.33057,-0.6423300000000001,12,64,172,75
37620,-0.53784,0.0695799999999999,-0.81812,12,64,172,75
37640,-0.4462899999999999,-0.081299,-0.87231,12,64,172,75
37660,-0.65137,0.032471,-0.6416,12,64,172,75
37680,-0.5044,0.15991,-0.81103,12,64,172,75
37700,-0.63843,-0.002686,-0.71045,12,64,172,75
37720,-0.47534,-0.10059,-0.85645,12,64,172,75
37740,-0.4519,-0.071777,-0.8779299999999999,12,64,172,75
37760,-0.6423300000000001,-0.1342799999999999,-0.7580600000000001,12,64,172,75
37780,-0.4523899999999999,-0.2285199999999999,-0.85596,12,64,172,75
37800,-0.61279,0.37964,-0.63574,12,64,172,75
37820,-0.53198,-0.1098599999999999,-0.82275,12,64,172,75
37840,-0.61792,0.000488,-0.7600100000000001,12,64,172,75
37860,-0.45142,-0.22778,-0.85083,12,64,172,75
37880,-0.68457,0.29932,-0.6169399999999999,12,64,172,75
37900,-0.45142,-0.22315,-0.8479,12,64,172,75
37920,-0.61206,0.3894,-0.61743,12,64,172,75
37940,-0.69482,0.020996,-0.68823,12,64,172,75
37960,-0.5791,-0.037109,-0.7719699999999999,12,64,172,75
37980,-0.51636,-0.09668,-0.8317899999999999,12,64,172,75
38000,-0.6157199999999999,-0.007324,-0.7600100000000001,12,64,172,75
38020,-0.62622,0.4646,-0.5918,12,64,172,75
38040,-0.5083,-0.11304,-0.83081,12,64,172,75
38060,-0.4458,-0.087158,-0.87549,12,64,172,75
38080,-0.6369600000000001,0.12158,-0.72559,12,64,172,75
38100,-0.45288,-0.2304699999999999,-0.8403299999999999,12,64,172,75
38120,-0.4545899999999999,-0.19263,-0.8630399999999999,12,64,172,75
38140,-0.45386,-0.076904,-0.8696299999999999,12,64,172,75
38160,-0.45532,-0.18872,-0.85205,12,64,172,75
38180,-0.68921,0.11426,-0.65991,12,64,172,75
38200,-0.65527,0.03833,-0.7226600000000001,12,64,172,75
38220,-0.52832,-0.0852049999999999,-0.8266600000000001,12,64,172,75
38240,-0.5227,-0.10962,-0.82153,12,64,172,75
38260,-0.5273399999999999,-0.084473,-0.80395,12,64,172,75
38280,-0.72534,0.038818,-0.63013,12,64,172,75
38300,-0.45288,-0.22241,-0.8452200000000001,12,64,172,75
38320,-0.5271,-0.12085,-0.82129,12,64,172,75
38340,-0.59253,-0.021973,-0.71704,12,64,172,75
38360,-0.4585,-0.18579,-0.8552299999999999,12,64,172,75
38380,-0.52051,-0.10889,-0.81543,12,64,172,75
38400,-0.5957,0.4978,-0.59082,12,64,172,75
38420,-0.52295,-0.0815429999999999,-0.81543,12,64,172,75
38440,-0.70435,0.17773,-0.65405,12,64,172,75
38460,-0.4545899999999999,-0.18237,-0.86645,12,64,172,75
38480,-0.45679,-0.22168,-0.84277,12,64,172,75
38500,-0.96069,0.16284,-0.53638,12,64,172,75
38520,-0.45703,-0.2251,-0.83765,12,64,172,75
38540,-0.45581,-0.18433,-0.86645,12,64,172,75
38560,-0.67578,0.11499,-0.7067899999999999,12,64,172,75
38580,-0.59375,0.18652,-0.7395,12,64,172,75
38600,-0.6721199999999999,0.090332,-0.66113,12,64,172,75
38620,-0.44873,-0.2289999999999999,-0.8491200000000001,12,64,172,75
38640,-0.52759,-0.087402,-0.82739,12,64,172,75
38660,-0.45752,-0.22583,-0.85059,12,64,172,75
38680,-0.52295,-0.11621,-0.81567,12,64,172,75
38700,-0.58472,0.074707,-0.78247,12,64,172,75
38720,-0.62476,0.16382,-0.7246100000000001,12,64,172,75
38740,-0.56616,0.38135,-0.69165,12,64,172,75
38760,-0.5778800000000001,0.49805,-0.6130399999999999,12,64,172,75
38780,-0.4511699999999999,-0.0778809999999999,-0.8764700000000001,12,64,172,75
38800,-0.5170899999999999,-0.11548,-0.8291,12,64,172,75
38820,-0.5231899999999999,-0.1093799999999999,-0.83545,12,64,172,75
38840,-0.45703,-0.1897,-0.85278,12,64,172,75
38860,-0.72656,0.22095,-0.63989,12,64,172,75
38880,-0.44995,-0.084473,-0.8669399999999999,12,64,172,75
38900,-0.4511699999999999,-0.079834,-0.8710899999999999,12,64,172,75
38920,-0.51025,-0.10059,-0.78345,12,64,172,75
38940,-0.52954,-0.12085,-0.82275,12,64,172,75
38960,-0.64966,0.3606,-0.6049800000000001,12,64,172,75
38980,-0.5092800000000001,0.48584,-0.66992,12,64,172,75
39000,-0.44946,-0.21973,-0.8403299999999999,12,64,172,75
39020,-0.45142,-0.22315,-0.8418,12,64,172,75
39040,-0.47852,-0.088867,-0.8571799999999999,12,64,172,75
39060,-0.7954100000000001,0.16797,-0.56445,12,64,172,75
39080,-0.4631399999999999,-0.22705,-0.84839,12,64,172,75
39100,-0.4504399999999999,-0.08667,-0.86792,12,64,172,75
39120,-0.45483,-0.22388,-0.84546,12,64,172,75
39140,-0.4541,-0.18408,-0.8562,12,64,172,75
39160,-0.45825,-0.22754,-0.8425299999999999,12,64,172,75
39180,-0.65405,0.018311,-0.69482,12,64,172,75
39200,-0.45825,-0.22144,-0.85156,12,64,172,75
39220,-0.55005,-0.012695,-0.81323,12,64,172,75
39240,-0.53833,-0.084229,-0.8125,12,64,172,75
39260,-0.44898,-0.088867,-0.8667,12,64,172,75
39280,-0.5083,-0.11304,-0.83081,12,64,172,75
39300,-0.5725100000000001,0.4829100000000001,-0.6123,12,64,172,75
39320,-0.52808,-0.10254,-0.81226,12,64,172,75
39340,-0.45166,-0.070312,-0.8710899999999999,12,64,172,75
39360,-0.56738,0.47925,-0.6062,12,64,172,75
39380,-0.75293,0.18628,-0.56006,12,64,172,75
39400,-0.45557,-0.1897,-0.88892,12,64,172,75
39420,-0.47632,0.52051,-0.65796,12,64,172,75
39440,-0.46265,-0.068359,-0.8886700000000001,12,64,172,75
39460,-0.5371100000000001,0.45483,-0.65503,12,64,172,75
39480,-0.47656,0.53125,-0.65747,12,64,172,75
39500,-0.52954,-0.12085,-0.81909,12,64,172,75
39520,-0.5083,-0.11499,-0.82886,12,64,172,75
39540,-0.51782,-0.0893549999999999,-0.8186,12,64,172,75
39560,-0.45361,-0.07959,-0.86719,12,64,172,75
39580,-0.6110800000000001,0.31616,-0.64648,12,64,172,75
39600,-0.4479999999999999,-0.2268099999999999,-0.8518100000000001,12,64,172,75
39620,-0.52856,-0.082764,-0.81543,12,64,172,75
39640,-0.63525,0.053955,-0.70898,12,64,172,75
39660,-0.6477,-0.061035,-0.7390100000000001,12,64,172,75
39680,-0.53345,-0.084717,-0.81958,12,64,172,75
39700,-0.74731,0.20483,-0.56397,12,64,172,75
39720,-0.68628,0.22998,-0.70898,12,64,172,75
39740,-0.53027,-0.11939,-0.82275,12,64,172,75
39760,-0.43604,-0.22705,-0.8408200000000001,12,64,172,75
39780,-0.5463899999999999,0.39307,-0.67188,12,64,172,75
39800,-0.4763199999999999,-0.096924,-0.8579100000000001,12,64,172,75
39820,-0.55933,0.076416,-0.7973600000000001,12,64,172,75
39840,-0.5227,-0.088379,-0.8303200000000001,12,64,172,75
39860,-0.7307100000000001,0.27124,-0.6091300000000001,12,64,172,75
39880,-0.53442,-0.1294,-0.81934,12,64,172,75
39900,-0.7580600000000001,0.089111,-0.59448,12,64,172,75
39920,-0.45605,-0.18213,-0.8693799999999999,12,64,172,75
39940,-0.45532,-0.22607,-0.8471700000000001,12,64,172,75
39960,-0.45386,-0.22119,-0.8430200000000001,12,64,172,75
39980,-0.68506,0.040283,-0.69214,12,64,172,75
40000,-0.68042,0.0329589999999999,-0.69995,12,64,172,75
40020,-0.45923,-0.18823,-0.8444799999999999,12,64,172,75
40040,-0.52417,-0.13184,-0.81397,12,64,172,75
40060,-0.45264,-0.23462,-0.8476600000000001,12,64,172,75
40080,-0.5874,0.3501,-0.69019,12,64,172,75
40100,-0.46802,-0.091309,-0.8571799999999999,12,64,172,75
40120,-0.62769,0.085449,-0.71265,12,64,172,75
40140,-0.4462899999999999,-0.088135,-0.86475,12,64,172,75
40160,-0.7033699999999999,0.12207,-0.65405,12,64,172,75
40180,-0.60254,-0.008057,-0.77661,12,64,172,75
40200,-0.72925,0.28686,-0.55786,12,64,172,75
40220,-0.64477,0.03833,-0.70581,12,64,172,75
40240,-0.65552,0.058594,-0.69458,12,64,172,75
40260,-0.52783,-0.087646,-0.823,12,64,172,75
40280,-0.52661,-0.0910639999999999,-0.82178,12,64,172,75
40300,-0.47876,-0.089844,-0.8476600000000001,12,64,172,75
40320,-0.65112,0.42139,-0.5798300000000001,12,64,172,75
40340,-0.68018,0.1311,-0.66968,12,64,172,75
40360,-0.46069,-0.2221699999999999,-0.85059,12,64,172,75
40380,-0.6643100000000001,0.20776,-0.67285,12,64,172,75
40400,-0.4565399999999999,-0.18237,-0.85083,12,64,172,75
40420,-0.9006299999999999,0.0612789999999999,-0.56616,12,64,172,75
40440,-0.82715,0.1853,-0.4643600000000001,12,64,172,75
40460,-0.6875,0.2229,-0.65405,12,64,172,75
40480,-0.47681,0.52368,-0.67188,12,64,172,75
40500,-0.5153800000000001,-0.087891,-0.81909,12,64,172,75
40520,-0.6137699999999999,0.24146,-0.7329100000000001,12,64,172,75
40540,-0.44922,-0.22632,-0.8422799999999999,13,43,183,104
40560,-0.51953,-0.10181,-0.81567,13,43,183,104
40580,-0.5542,0.088867,-0.7753899999999999,13,43,183,104
40600,-0.54273,0.017334,-0.81519,13,43,183,104
40620,-0.4565399999999999,-0.22461,-0.85156,13,43,183,104
40640,-0.51685,-0.091553,-0.8261700000000001,13,43,183,104
40660,-0.66235,0.1023,-0.6936,13,43,183,104
40680,-0.51831,-0.11475,-0.8337399999999999,13,43,183,104
40700,-0.66968,0.25366,-0.66382,13,43,183,104
40720,-0.59741,0.43481,-0.63452,13,43,183,104
40740,-0.4523899999999999,-0.21924,-0.8469200000000001,13,43,183,104
40760,-0.72754,0.088623,-0.6350100000000001,13,43,183,104
40780,-0.67969,0.1272,-0.67065,13,43,183,104
40800,-0.53247,-0.087402,-0.81738,13,43,183,104
40820,-0.53003,-0.089844,-0.8234899999999999,13,43,183,104
40840,-0.45679,-0.18188,-0.86035,13,43,183,104
40860,-0.53003,-0.080566,-0.8295899999999999,13,43,183,104
40880,-0.4504399999999999,-0.2229,-0.8552299999999999,13,43,183,104
40900,-0.5092800000000001,0.0791019999999999,-0.8295899999999999,13,43,183,104
40920,-0.44898,-0.18555,-0.8537600000000001,13,43,183,104
40940,-0.45581,-0.19043,-0.85693,13,43,183,104
40960,-0.44531,-0.17334,-0.80786,13,43,183,104
40980,-0.5454100000000001,0.5451699999999999,-0.62158,13,43,183,104
41000,-0.45361,-0.22607,-0.85449,13,43,183,104
41020,-0.45581,-0.086914,-0.8706,13,43,183,104
41040,-0.45361,-0.22607,-0.85449,13,43,183,104
41060,-0.45825,-0.2304699999999999,-0.8535200000000001,13,43,183,104
41080,-0.51074,-0.10303,-0.8269,13,43,183,104
41100,-0.58472,0.0737299999999999,-0.79028,13,43,183,104
41120,-0.44898,-0.18677,-0.86182,13,43,183,104
41140,-0.53125,-0.087891,-0.8198200000000001,13,43,183,104
41160,-0.5351600000000001,-0.12988,-0.81274,13,43,183,104
41180,-0.62549,0.001221,-0.76025,13,43,183,104
41200,-0.64477,0.31494,-0.66382,13,43,183,104
41220,-0.70435,0.068115,-0.63452,13,43,183,104
41240,-0.69653,0.22412,-0.60132,13,43,183,104
41260,-0.44653,-0.075928,-0.8715799999999999,13,43,183,104
41280,-0.5109899999999999,-0.11694,-0.82983,13,43,183,104
41300,-0.36914,0.080811,-1.0854,13,43,183,104
41320,-0.57568,0.4809600000000001,-0.60645,13,43,183,104
41340,-0.4504399999999999,-0.2265599999999999,-0.85669,13,43,183,104
41360,-0.45288,-0.076904,-0.8667,13,43,183,104
41380,-0.63062,0.078613,-0.76221,13,43,183,104
41400,-0.56567,0.45142,-0.66773,13,43,183,104
41420,-0.51636,-0.097412,-0.8242200000000001,13,43,183,104
41440,-0.52393,-0.10718,-0.83105,13,43,183,104
41460,-0.68091,0.28076,-0.5451699999999999,13,43,183,104
41480,-0.49976,0.11157,-0.8449700000000001,13,43,183,104
41500,-0.5158699999999999,-0.0976559999999999,-0.8303200000000001,13,43,183,104
41520,-0.45337,-0.2221699999999999,-0.8449700000000001,13,43,183,104
41540,-0.4714399999999999,-0.088379,-0.85693,13,43,183,104
41560,-0.7753899999999999,-0.027588,-0.5725100000000001,13,43,183,104
41580,-0.4511699999999999,-0.074219,-0.86841,13,43,183,104
41600,-0.44946,-0.078125,-0.8640100000000001,13,43,183,104
41620,-0.4616699999999999,-0.2334,-0.8894,13,43,183,104
41640,-0.45776,-0.18457,-0.8562,13,43,183,104
41660,-0.71558,0.11914,-0.65137,13,43,183,104
41680,-0.52808,0.50952,-0.6359899999999999,13,43,183,104
41700,-0.81592,0.031982,-0.51343,13,43,183,104
41720,-0.39087,0.25146,-0.65723,13,43,183,104
41740,-0.70996,0.23755,-0.47095,13,43,183,104
41760,-0.45532,-0.0695799999999999,-0.8715799999999999,13,43,183,104
41780,-0.68579,-0.11035,-0.6543,13,43,183,104
41800,-0.44995,-0.22705,-0.84644,13,43,183,104
41820,-0.5764199999999999,0.38403,-0.68945,13,43,183,104
41840,-0.67773,-0.097412,-0.73926,13,43,183,104
41860,-0.6713899999999999,0.34009,-0.59912,13,43,183,104
41880,-0.53369,-0.0852049999999999,-0.81787,13,43,183,104
41900,-0.61816,0.3208,-0.65991,13,43,183,104
41920,-0.68066,0.15674,-0.8418,13,43,183,104
41940,-0.6543,0.3562,-0.61523,13,43,183,104
41960,-0.5109899999999999,-0.10449,-0.82129,13,43,183,104
41980,-0.5437,0.091064,-0.81201,13,43,183,104
42000,-0.68286,0.32666,-0.56616,13,43,183,104
42020,-0.6123,0.29663,-0.68335,13,43,183,104
42040,-0.70557,0.099854,-0.6189,13,43,183,104
42060,-0.4663100000000001,0.057861,-0.8635200000000001,13,43,183,104
42080,-0.64844,0.479,-0.5451699999999999,13,43,183,104
42100,-0.4484899999999999,-0.22876,-0.8501,13,43,183,104
42120,-0.4563,-0.078369,-0.875,13,43,183,104
42140,-0.52856,-0.095947,-0.8244600000000001,13,43,183,104
42160,-0.5293,-0.12842,-0.83105,13,43,183,104
42180,-0.59692,0.4724100000000001,-0.66162,13,43,183,104
42200,-0.45093,-0.23193,-0.85083,13,43,183,104
42220,-0.51343,-0.11499,-0.83691,13,43,183,104
42240,-0.45093,-0.23535,-0.84326,13,43,183,104
42260,-0.4565399999999999,-0.17969,-0.85278,13,43,183,104
42280,-0.48438,0.51221,-0.66089,13,43,183,104
42300,-0.49048,0.4917,-0.63794,13,43,183,104
42320,-0.56665,0.40356,-0.7124,13,43,183,104
42340,-0.4484899999999999,-0.074463,-0.8737799999999999,13,43,183,104
42360,-0.52222,-0.080566,-0.82739,13,43,183,104
42380,-0.44946,-0.072266,-0.87866,13,43,183,104
42400,-0.44995,-0.0815429999999999,-0.87085,13,43,183,104
42420,-0.47363,-0.095947,-0.86279,13,43,183,104
42440,-0.52075,-0.1052299999999999,-0.80615,13,43,183,104
42460,-0.6333,0.38452,-0.64355,13,43,183,104
42480,-0.65332,-0.016357,-0.72827,13,43,183,104
42500,-0.4545899999999999,-0.076416,-0.88379,13,43,183,104
42520,-0.5271,-0.084473,-0.8242200000000001,13,43,183,104
42540,-0.51831,-0.1091299999999999,-0.82715,13,43,183,104
42560,-1.0784,0.41162,-0.5188,13,43,183,104
42580,-0.4502,-0.080322,-0.8803700000000001,13,43,183,104
42600,-0.68408,0.34521,-0.58472,13,43,183,104
42620,-0.6289100000000001,0.12573,-0.73096,13,43,183,104
42640,-0.4523899999999999,-0.070801,-0.8674299999999999,13,43,183,104
42660,-0.52075,-0.1228,-0.82886,13,43,183,104
42680,-0.48047,-0.0910639999999999,-0.8491200000000001,13,43,183,104
42700,-0.68335,0.057861,-0.62671,13,43,183,104
42720,-0.52856,-0.085938,-0.82105,13,43,183,104
42740,-0.69531,0.11694,-0.6731,13,43,183,104
42760,-0.5166,-0.1023,-0.82373,13,43,183,104
42780,-0.45679,-0.073242,-0.87744,13,43,183,104
42800,-0.55176,0.10669,-0.8200700000000001,13,43,183,104
42820,-0.45532,-0.2251,-0.8501,13,43,183,104
42840,-0.4504399999999999,-0.080322,-0.87402,13,43,183,104
42860,-0.7580600000000001,0.007324,-0.60815,13,43,183,104
42880,-0.51758,-0.10815,-0.82275,13,43,183,104
42900,-0.70801,0.12207,-0.64673,13,43,183,104
42920,-0.45557,-0.18506,-0.8547399999999999,13,43,183,104
42940,-0.6157199999999999,0.30225,-0.6816399999999999,13,43,183,104
42960,-0.43555,-0.18091,-0.86475,13,43,183,104
42980,-0.52148,-0.10693,-0.8295899999999999,13,43,183,104
43000,-0.4541,-0.22705,-0.85278,13,43,183,104
43020,-0.45337,-0.082275,-0.86987,13,43,183,104
43040,-0.66699,0.010254,-0.6716300000000001,13,43,183,104
43060,-0.69409,0.057617,-0.69727,13,43,183,104
43080,-0.48315,0.44043,-0.70239,13,43,183,104
43100,-0.6704100000000001,0.32861,-0.66992,13,43,183,104
43120,-0.66138,0.088623,-0.68457,13,43,183,104
43140,-0.53272,-0.13208,-0.81934,13,43,183,104
43160,-0.45898,-0.073242,-0.87769,13,43,183,104
43180,-0.48584,0.24756,-0.81006,13,43,183,104
43200,-0.7299800000000001,-0.049316,-0.65991,13,43,183,104
43220,-0.52173,-0.075928,-0.8244600000000001,13,43,183,104
43240,-0.45898,-0.18042,-0.85083,13,43,183,104
43260,-0.62573,0.42627,-0.6030300000000001,13,43,183,104
43280,-0.53149,-0.07959,-0.82715,13,43,183,104
43300,-0.5376,0.018555,-0.80176,13,43,183,104
43320,-0.5161100000000001,0.09082,-0.8186,13,43,183,104
43340,-0.6157199999999999,0.18799,-0.68481,13,43,183,104
43360,-0.57617,0.39307,-0.6731,13,43,183,104
43380,-0.4519,-0.22607,-0.8540000000000001,13,43,183,104
43400,-0.7026399999999999,0.32959,-0.5835,13,43,183,104
43420,-0.51685,-0.091553,-0.8261700000000001,13,43,183,104
43440,-0.5151399999999999,0.44995,-0.6662600000000001,13,43,183,104
43460,-0.4775399999999999,-0.0971679999999999,-0.8574200000000001,13,43,183,104
43480,-0.5451699999999999,-0.027832,-0.80713,13,43,183,104
43500,-0.5332,-0.1059599999999999,-0.81763,13,43,183,104
43520,-0.50635,-0.1101099999999999,-0.81885,13,43,183,104
43540,-0.6477,0.22852,-0.75781,13,43,183,104
43560,-0.78198,0.15869,-0.68433,13,43,183,104
43580,-0.4523899999999999,-0.22803,-0.8557100000000001,13,43,183,104
43600,-0.53101,-0.084473,-0.8220200000000001,13,43,183,104
43620,-0.5393100000000001,0.26733,-0.75415,13,43,183,104
43640,-0.47852,-0.094238,-0.84619,13,43,183,104
43660,-0.5705600000000001,0.41406,-0.6748,13,43,183,104
43680,-0.6733399999999999,0.27564,-0.5776399999999999,13,43,183,104
43700,-0.55078,0.1792,-0.8286100000000001,13,43,183,104
43720,-0.45093,-0.0832519999999999,-0.8833,13,43,183,104
43740,-0.6049800000000001,0.38257,-0.62964,13,43,183,104
43760,-0.7048300000000001,0.088379,-0.54443,13,43,183,104
43780,-0.53735,0.046387,-0.80762,13,43,183,104
43800,-0.6167,0.0852049999999999,-0.76904,13,43,183,104
43820,-0.47876,-0.0935059999999999,-0.8486299999999999,13,43,183,104
43840,-0.45288,-0.2312,-0.8469200000000001,13,43,183,104
43860,-0.8032199999999999,0.023193,-0.53833,13,43,183,104
43880,-0.48389,0.090332,-0.75488,13,43,183,104
43900,-0.58203,0.45605,-0.6748,13,43,183,104
43920,-0.45557,-0.2265599999999999,-0.8452200000000001,13,43,183,104
43940,-0.51489,-0.0947269999999999,-0.8322700000000001,13,43,183,104
43960,-0.44898,-0.2241199999999999,-0.8381299999999999,13,43,183,104
43980,-0.64966,-0.069336,-0.73047,13,43,183,104
44000,-0.59741,0.49316,-0.63135,13,43,183,104
44020,-0.63452,0.38623,-0.63843,13,43,183,104
44040,-0.68555,0.002197,-0.71924,13,43,183,104
44060,-0.53027,-0.083008,-0.81348,13,43,183,104
44080,-0.61279,0.37134,-0.6210899999999999,13,43,183,104
44100,-0.45093,-0.23193,-0.85083,13,43,183,104
44120,-0.60938,0.001221,-0.75952,13,43,183,104
44140,-0.62353,0.36035,-0.6655300000000001,13,43,183,104
44160,-0.4731399999999999,-0.090088,-0.87134,13,43,183,104
44180,-0.58618,0.52637,-0.65991,13,43,183,104
44200,-0.45703,-0.1814,-0.86816,13,43,183,104
44220,-0.45703,-0.18848,-0.8608399999999999,13,43,183,104
44240,-0.65674,-0.0778809999999999,-0.71265,13,43,183,104
44260,-0.5683600000000001,0.18945,-0.75732,13,43,183,104
44280,-0.4541,-0.18335,-0.85254,14,20,175,50
44300,-0.6936,0.33081,-0.59448,14,20,175,50
44320,-0.66309,0.1423299999999999,-0.7041,14,20,175,50
44340,-0.53296,0.448,-0.67602,14,20,175,50
44360,-0.44898,-0.088867,-0.8667,14,20,175,50
44380,-0.4729,-0.11841,-0.7727,14,20,175,50
44400,-0.6523399999999999,-0.047363,-0.73755,14,20,175,50
44420,-0.61035,0.28149,-0.73633,14,20,175,50
44440,-0.52881,-0.080566,-0.8322700000000001,14,20,175,50
44460,-0.6350100000000001,0.37476,-0.61548,14,20,175,50
44480,-0.5173300000000001,-0.11523,-0.84106,14,20,175,50
44500,-0.55933,0.076416,-0.7973600000000001,14,20,175,50
44520,-0.67456,-0.011719,-0.71851,14,20,175,50
44540,-0.42749,0.15332,-0.82935,14,20,175,50
44560,-0.5153800000000001,-0.0910639999999999,-0.83105,14,20,175,50
44580,-0.53076,-0.0791019999999999,-0.8239799999999999,14,20,175,50
44600,-0.45703,-0.22485,-0.8486299999999999,14,20,175,50
44620,-0.63745,0.013184,-0.7441399999999999,14,20,175,50
44640,-0.75073,-0.16724,-0.62476,14,20,175,50
44660,-0.53491,0.49854,-0.62647,14,20,175,50
44680,-0.52563,-0.1340299999999999,-0.8147,14,20,175,50
44700,-0.5200199999999999,-0.096924,-0.83105,14,20,175,50
44720,-0.4668,-0.11597,-0.77075,14,20,175,50
44740,-0.45825,-0.22144,-0.85156,14,20,175,50
44760,-0.74487,0.2085,-0.57471,14,20,175,50
44780,-0.52588,-0.13062,-0.81812,14,20,175,50
44800,-0.48047,-0.1023,-0.85254,14,20,175,50
44820,-0.70117,0.10547,-0.6621100000000001,14,20,175,50
44840,-0.5625,0.43091,-0.8418,14,20,175,50
44860,-0.4563,-0.18945,-0.86182,14,20,175,50
44880,-0.52344,-0.084229,-0.82495,14,20,175,50
44900,-0.44702,-0.072998,-0.8676799999999999,14,20,175,50
44920,-0.4502,-0.18213,-0.86011,14,20,175,50
44940,-0.47388,-0.090576,-0.8523,14,20,175,50
44960,-0.45483,-0.22119,-0.84815,14,20,175,50
44980,-0.47632,0.18848,-0.84375,14,20,175,50
45000,-0.65991,0.095703,-0.70898,14,20,175,50
45020,-0.47803,-0.09375,-0.84839,14,20,175,50
45040,-0.61475,0.12085,-0.6643100000000001,14,20,175,50
45060,-0.61279,0.38135,-0.65405,14,20,175,50
45080,-0.4628899999999999,-0.1936,-0.8891600000000001,14,20,175,50
45100,-0.6462399999999999,-0.0664059999999999,-0.73438,14,20,175,50
45120,-0.4563,-0.18237,-0.85278,14,20,175,50
45140,-0.45825,-0.22607,-0.84815,14,20,175,50
45160,-0.44873,-0.22705,-0.83252,14,20,175,50
45180,-0.7085,0.19482,-0.64795,14,20,175,50
45200,-0.47046,0.52051,-0.6716300000000001,14,20,175,50
45220,-0.58203,0.30225,-0.71265,14,20,175,50
45240,-0.51367,-0.095215,-0.8234899999999999,14,20,175,50
45260,-0.5737300000000001,0.11621,-0.81348,14,20,175,50
45280,-0.65601,0.04541,-0.73755,14,20,175,50
45300,-0.52661,-0.081055,-0.8266600000000001,14,20,175,50
45320,-0.53955,0.045166,-0.80395,14,20,175,50
45340,-0.45093,-0.081787,-0.87476,14,20,175,50
45360,-0.6875,0.12354,-0.62647,14,20,175,50
45380,-0.66968,0.29053,-0.61841,14,20,175,50
45400,-0.5273399999999999,-0.0832519999999999,-0.8276399999999999,14,20,175,50
45420,-0.44995,-0.22754,-0.84888,14,20,175,50
45440,-0.65649,0.38501,-0.58911,14,20,175,50
45460,-0.45142,-0.0773929999999999,-0.86792,14,20,175,50
45480,-0.4646,0.068359,-0.8762200000000001,14,20,175,50
45500,-0.61938,-0.094482,-1.0759,14,20,175,50
45520,-0.6210899999999999,0.30078,-0.66455,14,20,175,50
45540,-0.5293,-0.12842,-0.83105,14,20,175,50
45560,-0.4597199999999999,-0.2251,-0.8449700000000001,14,20,175,50
45580,-0.55371,0.41943,-0.6709,14,20,175,50
45600,-0.8479,0.037109,-0.50732,14,20,175,50
45620,-0.50855,-0.12036,-0.84644,14,20,175,50
45640,-0.61792,0.35791,-0.64575,14,20,175,50
45660,-0.4572699999999999,-0.22705,-0.8496100000000001,14,20,175,50
45680,-0.46118,-0.1919,-0.85498,14,20,175,50
