timestamp,accX,accY,accZ,Subject_ID,Age,Height_cm,Weight_kg
0,0.15112,-0.16626,0.084961,1,32,163,97
20,-1.2495,0.3229999999999999,-0.038818,1,32,163,97
40,-0.65625,0.086426,-0.20581,1,32,163,97
60,-1.1299,0.42676,-0.1655299999999999,1,32,163,97
80,-2.0,0.37207,0.99707,1,32,163,97
100,-0.5837399999999999,0.19434,-0.13159,1,32,163,97
120,-0.49731,0.057861,-0.24316,1,32,163,97
140,-0.80688,0.38843,-0.45825,1,32,163,97
160,-0.24316,0.071045,-0.27417,1,32,163,97
180,-0.8623,0.19556,-0.41211,1,32,163,97
200,-1.2747,0.16113,-0.72827,1,32,163,97
220,-2.0,-0.071777,-0.62647,1,32,163,97
240,-0.80933,-0.16284,-0.31934,1,32,163,97
260,-0.25586,-0.040771,-0.063721,1,32,163,97
280,-0.98901,-0.012939,-0.000732,1,32,163,97
300,-1.3035,0.46851,-0.25684,1,32,163,97
320,-0.99853,0.43115,0.15161,1,32,163,97
340,-0.97974,0.3864800000000001,-0.27954,1,32,163,97
360,-0.97974,0.30933,-0.17651,1,32,163,97
380,-1.6343,0.027832,-0.5083,1,32,163,97
400,0.32105,-0.19116,0.46143,1,32,163,97
420,-0.42334,-0.096191,-0.36743,1,32,163,97
440,-1.946,0.8024899999999999,-0.49707,1,32,163,97
460,-1.6396,0.23413,-0.08374,1,32,163,97
480,-2.0,0.69116,0.8408200000000001,1,32,163,97
500,1.6343,0.19531,-0.49658,1,32,163,97
520,-2.0,1.5325,-0.40039,1,32,163,97
540,-1.2183,1.1492,-0.53613,1,32,163,97
560,0.42261,-0.095459,0.36914,1,32,163,97
580,-0.36597,0.11865,-0.083008,1,32,163,97
600,-0.8811,0.0271,-0.090332,1,32,163,97
620,-0.65625,0.31396,-0.02417,1,32,163,97
640,0.64941,-0.039062,-0.036865,1,32,163,97
660,-0.6037600000000001,0.36914,-0.77344,1,32,163,97
680,-0.56958,0.43433,-0.16089,1,32,163,97
700,-2.0,1.272,-0.51221,1,32,163,97
720,-0.28809,0.22388,-0.90991,1,32,163,97
740,0.5,-0.14526,0.32642,1,32,163,97
760,-0.9624,0.52759,-0.38232,1,32,163,97
780,1.1199,0.28125,-0.28223,1,32,163,97
800,-0.99194,0.25928,-0.1272,1,32,163,97
820,-0.35327,-0.13501,0.25732,1,32,163,97
840,-1.4421,0.47534,-0.39819,1,32,163,97
860,-0.37109,0.25659,-0.49072,1,32,163,97
880,-1.092,0.39331,0.098145,1,32,163,97
900,-2.0,1.9999,-2.0,1,32,163,97
920,-0.9292,0.39209,0.030518,1,32,163,97
940,-2.0,-0.48999,0.036377,1,32,163,97
960,0.4204100000000001,-0.18335,-0.15503,1,32,163,97
980,-0.86645,0.27148,-0.25806,1,32,163,97
1000,-0.81177,0.37842,-0.22583,1,32,163,97
1020,-1.3962,0.63867,-1.1367,1,32,163,97
1040,-0.7653800000000001,0.44922,-0.024658,1,32,163,97
1060,0.24951,-0.12451,0.042725,1,32,163,97
1080,-0.5044,0.28564,0.0700679999999999,1,32,163,97
1100,0.53198,0.005859,0.02832,1,32,163,97
1120,-0.59985,0.21021,-0.19214,1,32,163,97
1140,-1.2229,0.50537,0.16821,1,32,163,97
1160,-1.9702,0.74121,-0.5515100000000001,1,32,163,97
1180,-0.8884299999999999,-0.060547,0.059326,1,32,163,97
1200,-0.93433,0.30078,-0.10132,1,32,163,97
1220,-2.0,1.4451,-0.34399,1,32,163,97
1240,-1.1003,0.15381,-0.37305,1,32,163,97
1260,-1.2939,0.39966,-0.33594,1,32,163,97
1280,-1.8875,0.43091,0.27832,2,51,181,80
1300,-0.67407,0.038086,-0.26148,2,51,181,80
1320,-2.0,0.35083,0.48926,2,51,181,80
1340,-0.95605,0.18628,-0.5188,2,51,181,80
1360,-1.8975,1.0266,-0.19434,2,51,181,80
1380,-0.75488,0.32861,-0.036133,2,51,181,80
1400,-2.0,0.20605,-0.34521,2,51,181,80
1420,-0.11133,-0.15967,0.001465,2,51,181,80
1440,-1.2783,0.36328,-0.19336,2,51,181,80
1460,-0.16846,0.26758,-0.32422,2,51,181,80
1480,-2.0,1.6369999999999998,-0.16382,2,51,181,80
1500,-0.92749,0.43335,-0.20947,2,51,181,80
1520,-0.9292,0.39209,0.030518,2,51,181,80
1540,-0.1294,-0.15015,-0.12061,2,51,181,80
1560,0.10938,0.071045,-0.16455,2,51,181,80
1580,-0.99902,0.61621,-0.55786,2,51,181,80
1600,-1.4202,0.61597,0.033203,2,51,181,80
1620,-2.0,-0.55469,-0.14722,2,51,181,80
1640,-0.34302,0.087646,-0.22656,2,51,181,80
1660,-1.6306,-0.198,-0.8444799999999999,2,51,181,80
1680,-1.0454,0.21313,0.047363,2,51,181,80
1700,-1.5986,0.21655,0.30859,2,51,181,80
1720,-1.1978,0.62305,-0.083984,2,51,181,80
1740,0.11841,0.096191,0.13135,2,51,181,80
1760,-0.59741,0.046387,-0.0634769999999999,2,51,181,80
1780,-0.2644,0.069824,-0.27881,2,51,181,80
1800,-0.45215,0.13501,0.19898,2,51,181,80
1820,-1.0459,0.27344,-0.26904,2,51,181,80
1840,-0.98901,-0.012939,-0.000732,2,51,181,80
1860,-0.88965,0.15894,-0.084961,2,51,181,80
1880,-1.02,-0.29541,-0.20386,2,51,181,80
1900,-2.0,0.47119,0.55273,2,51,181,80
1920,-1.3977,0.823,-0.000244,2,51,181,80
1940,0.1787099999999999,0.1062,0.017822,2,51,181,80
1960,-0.010742,-0.11621,0.38428,2,51,181,80
1980,-1.3528,0.083984,0.19653,2,51,181,80
2000,-0.81226,0.43823,-0.088379,2,51,181,80
2020,-2.0,-0.093262,0.19605,2,51,181,80
2040,-2.0,0.55078,-0.34277,2,51,181,80
2060,-0.3523,0.54883,-0.37671,2,51,181,80
2080,0.4331100000000001,0.066895,-0.13135,2,51,181,80
2100,-2.0,0.32129,1.0342,2,51,181,80
2120,-0.19287,0.11182,-0.18604,2,51,181,80
2140,-0.99829,0.5039100000000001,-0.005615,2,51,181,80
2160,-2.0,-0.11939,0.1640599999999999,2,51,181,80
2180,-0.62207,0.24609,-0.10864,2,51,181,80
2200,0.15039,0.17969,-0.24731,2,51,181,80
2220,-0.78198,0.40161,-0.0773929999999999,2,51,181,80
2240,-2.0,1.9999,-0.35767,2,51,181,80
2260,-1.1001,0.6228,-0.23047,2,51,181,80
2280,0.20605,0.1084,-0.19312,2,51,181,80
2300,-2.0,0.022217,-1.4202,2,51,181,80
2320,-0.56348,0.33765,-0.1543,2,51,181,80
2340,0.823,-0.2876,-0.50049,2,51,181,80
2360,-1.6033,0.50781,0.56079,2,51,181,80
2380,-1.1985,0.7670899999999999,-0.4829100000000001,3,38,171,61
2400,0.35693,-0.047363,-0.229,3,38,171,61
2420,-1.186,0.29224,-0.053955,3,38,171,61
2440,-0.8689,0.41626,-0.16138,3,38,171,61
2460,-0.48975,-0.08374,-0.10864,3,38,171,61
2480,-0.39282,0.1477099999999999,0.082275,3,38,171,61
2500,-0.74341,0.22583,-0.099609,3,38,171,61
2520,0.2583,-0.43799,-0.13574,3,38,171,61
2540,-0.63525,0.16577,0.1919,3,38,171,61
2560,-1.7896,0.99194,-1.2351,3,38,171,61
2580,-0.39697,0.30249,0.006104,3,38,171,61
2600,-0.47559,0.10425,-0.18359,3,38,171,61
2620,-1.5593,0.10669,0.043213,3,38,171,61
2640,-0.45117,0.12402,-0.28662,3,38,171,61
2660,-0.42627,0.16065,-0.0773929999999999,3,38,171,61
2680,0.29761,-0.146,-0.27246,3,38,171,61
2700,-1.0889,0.34668,-0.10205,3,38,171,61
2720,-1.1011,0.39282,-0.12158,3,38,171,61
2740,-1.1318,0.5918,-0.20679,3,38,171,61
2760,-2.0,-0.17602,0.6469699999999999,3,38,171,61
2780,-1.0823,0.28613,-0.18481,3,38,171,61
2800,-1.7532,0.34619,-0.011475,3,38,171,61
2820,1.0015,0.40918,-0.54077,3,38,171,61
2840,-1.189,0.64282,-0.029541,3,38,171,61
2860,-1.6187,0.087158,-0.19092,3,38,171,61
2880,-2.0,0.24292,0.31323,3,38,171,61
2900,-0.15405,0.30176,-0.49316,3,38,171,61
2920,0.1643099999999999,-0.057373,0.20972,3,38,171,61
2940,0.0,-0.00293,-0.46582,3,38,171,61
2960,-0.67676,0.49316,-0.061523,3,38,171,61
2980,-1.449,0.68579,-0.20898,3,38,171,61
3000,-1.0249,0.35474,-0.28784,3,38,171,61
3020,-0.35889,0.013672,-0.18384,3,38,171,61
3040,-0.20874,0.092041,-0.11865,3,38,171,61
3060,-0.72388,0.43066,-0.17602,3,38,171,61
3080,-0.45215,0.13501,0.19898,3,38,171,61
3100,-2.0,-0.15161,-0.229,3,38,171,61
3120,-1.2673,0.25806,-0.089844,3,38,171,61
3140,-0.95605,0.18628,-0.5188,3,38,171,61
3160,-2.0,0.47266,0.33594,3,38,171,61
3180,-0.18774,0.070801,-0.025146,3,38,171,61
3200,-0.8378899999999999,0.31641,-0.19043,3,38,171,61
3220,-0.7087399999999999,-0.24854,0.005615,3,38,171,61
3240,0.41089,0.36914,-0.40698,3,38,171,61
3260,-2.0,0.4118600000000001,-0.30737,3,38,171,61
3280,-0.65381,0.5896,-0.3999,3,38,171,61
3300,-1.1306,0.39185,0.044922,3,38,171,61
3320,-0.55273,0.28564,-0.3501,3,38,171,61
3340,-1.7112,0.31616,-0.28027,3,38,171,61
3360,-0.29541,-0.16162,0.14941,3,38,171,61
3380,-1.3389,0.3208,0.015381,3,38,171,61
3400,-0.81714,0.5791,0.25146,4,41,160,76
3420,-1.3335,0.034424,-0.30005,4,41,160,76
3440,-2.0,-0.16138,0.36548,4,41,160,76
3460,-2.0,0.27734,-0.10645,4,41,160,76
3480,-0.93701,0.28906,-0.17236,4,41,160,76
3500,-2.0,0.41992,0.90747,4,41,160,76
3520,-0.8920899999999999,0.087891,0.016846,4,41,160,76
3540,-0.98364,0.40649,-0.26831,4,41,160,76
3560,-0.92041,-0.1792,0.40918,4,41,160,76
3580,-1.2651,0.071289,0.1499,4,41,160,76
3600,-0.97876,0.087891,-0.26563,4,41,160,76
3620,-1.8528,0.3523,0.86279,4,41,160,76
3640,-2.0,0.93774,0.5219699999999999,4,41,160,76
3660,-0.97144,0.50244,-0.36816,4,41,160,76
3680,-0.92749,0.43335,-0.20947,4,41,160,76
3700,-1.8171,0.51221,0.7456,4,41,160,76
3720,-0.33252,-0.039795,-0.18237,4,41,160,76
3740,-0.34888,0.20947,-0.10645,4,41,160,76
3760,0.5856899999999999,0.099609,-0.60156,4,41,160,76
3780,-1.3335,0.034424,-0.30005,4,41,160,76
3800,-1.3127,0.6391600000000001,-0.45386,4,41,160,76
3820,0.023438,-0.000244,-0.087402,4,41,160,76
3840,-2.0,1.7451,0.72534,4,41,160,76
3860,-0.32373,0.37012,-0.52466,4,41,160,76
3880,-0.34448,0.30737,-0.40186,4,41,160,76
3900,-0.17554,-0.24756,0.092285,4,41,160,76
3920,-1.1091,0.30908,0.12793,4,41,160,76
3940,-0.36352,0.006104,-0.15454,4,41,160,76
3960,-0.76636,0.32349,-0.76782,4,41,160,76
3980,-2.0,1.7866,-0.44629,4,41,160,76
4000,-0.70508,0.43823,-0.42212,4,41,160,76
4020,-0.20874,0.092041,-0.11865,4,41,160,76
4040,-0.76221,0.19287,0.049072,4,41,160,76
4060,-2.0,0.40894,-0.77612,4,41,160,76
4080,0.33203,-0.14087,-0.23145,4,41,160,76
4100,-0.5173300000000001,0.18433,-0.008057,4,41,160,76
4120,0.6001,0.041992,-0.15771,4,41,160,76
4140,-1.2183,1.1492,-0.53613,4,41,160,76
4160,-0.39844,0.11597,-0.090088,4,41,160,76
4180,-1.6772,0.40747,-0.00293,4,41,160,76
4200,-0.72119,0.30957,-0.041748,4,41,160,76
4220,0.3252,-0.21997,-0.20361,4,41,160,76
4240,-1.0208,0.16602,-0.38135,4,41,160,76
4260,-1.6262,-0.45264,-0.44678,4,41,160,76
4280,-0.2981,-0.022461,-0.29419,4,41,160,76
4300,-1.1147,0.55835,-0.33618,4,41,160,76
4320,-2.0,0.29761,0.3396,4,41,160,76
4340,-0.72485,-0.095703,0.098633,4,41,160,76
4360,-0.19067,-0.012695,0.15405,4,41,160,76
4380,-0.68188,0.39063,-0.5844699999999999,4,41,160,76
4400,-1.0012,0.30249,-0.21143,4,41,160,76
4420,0.87231,-0.094482,-0.11328,4,41,160,76
4440,-1.6396,0.23413,-0.08374,4,41,160,76
4460,-1.0657,0.62671,-0.1340299999999999,4,41,160,76
4480,-0.90332,0.26392,-0.21313,4,41,160,76
4500,-0.87671,0.48486,-0.39868,5,48,184,80
4520,-1.6108,0.7356,0.029541,5,48,184,80
4540,-0.8593799999999999,0.3916,-0.38696,5,48,184,80
4560,-0.37109,0.25659,-0.49072,5,48,184,80
4580,-1.2,0.6091300000000001,-0.41235,5,48,184,80
4600,0.86719,-0.099365,-0.31396,5,48,184,80
4620,-0.448,0.085449,-0.021484,5,48,184,80
4640,-0.91748,0.33496,0.003662,5,48,184,80
4660,-0.37012,0.23828,0.040771,5,48,184,80
4680,-1.48,0.27466,-0.34619,5,48,184,80
4700,-2.0,-0.1665,1.4077,5,48,184,80
4720,-0.58862,0.2312,-0.12891,5,48,184,80
4740,-1.6411,0.68774,-0.22681,5,48,184,80
4760,-0.7033699999999999,0.13184,-0.039062,5,48,184,80
4780,-0.7229,0.26807,-0.66089,5,48,184,80
4800,0.25073,0.00415,-0.20801,5,48,184,80
4820,-1.3892,0.2273,0.15063,5,48,184,80
4840,-0.66284,0.14136,-0.20483,5,48,184,80
4860,-2.0,0.040039,1.4973,5,48,184,80
4880,-0.89917,0.58716,0.042969,5,48,184,80
4900,-1.9626,0.12109,0.73633,5,48,184,80
4920,-0.5683600000000001,0.047607,-0.099854,5,48,184,80
4940,-2.0,-0.071777,-0.62647,5,48,184,80
4960,0.11939,0.12085,-0.22217,5,48,184,80
4980,-1.0698,0.58398,0.006348,5,48,184,80
5000,-1.3279,0.5141600000000001,-0.040771,5,48,184,80
5020,-0.90137,0.56152,-0.18799,5,48,184,80
5040,-0.39941,-0.14038,0.009521,5,48,184,80
5060,-1.2158,0.96924,-0.11133,5,48,184,80
5080,-0.49683,0.13159,-0.15161,5,48,184,80
5100,-1.8179,0.1582,0.39502,5,48,184,80
5120,-1.0464,0.29199,-0.22705,5,48,184,80
5140,-1.843,0.18115,0.049805,5,48,184,80
5160,-0.79688,0.13208,-0.46582,5,48,184,80
5180,-0.28809,0.11353,-0.16773,5,48,184,80
5200,-0.39746,-0.084961,0.4165,5,48,184,80
5220,-1.2744,0.2168,-0.4431100000000001,5,48,184,80
5240,0.11304,-0.0820309999999999,-0.084717,5,48,184,80
5260,-0.36426,-0.39038,-0.11523,5,48,184,80
5280,-0.5471199999999999,0.019043,-0.047607,5,48,184,80
5300,-0.11133,-0.15967,0.001465,5,48,184,80
5320,-0.71753,0.21924,-0.50952,5,48,184,80
5340,-1.5022,0.10864,0.43628,5,48,184,80
5360,-0.37109,0.25659,-0.49072,5,48,184,80
5380,-1.0828,0.23657,-0.38574,5,48,184,80
5400,-0.94043,0.18213,-0.045166,5,48,184,80
5420,-0.65601,0.20068,-0.31763,5,48,184,80
5440,-1.7107,0.45923,-0.53565,5,48,184,80
5460,0.24097,-0.19605,-0.1853,5,48,184,80
5480,-0.63355,0.1709,-0.12183,5,48,184,80
5500,-0.33667,0.03418,0.27515,5,48,184,80
5520,-2.0,0.4751,0.8183600000000001,5,48,184,80
5540,-1.1299,0.42676,-0.1655299999999999,5,48,184,80
5560,-1.3462,0.54932,-0.29834,5,48,184,80
5580,-2.0,0.62598,0.21704,5,48,184,80
5600,-0.21143,0.07959,-0.063232,5,48,184,80
5620,-0.40527,0.096436,-0.15894,5,48,184,80
5640,0.33814,-0.062744,-0.16797,5,48,184,80
5660,-0.26416,-0.16382,0.21313,5,48,184,80
5680,-1.4202,0.61597,0.033203,5,48,184,80
5700,0.011963,-0.15527,0.1228,5,48,184,80
5720,-0.40698,0.080078,-0.1853,5,48,184,80
5740,1.0476,0.0737299999999999,-0.23145,5,48,184,80
5760,-0.81616,0.46582,-0.24658,6,47,183,50
5780,-0.61792,-0.097656,-0.13355,6,47,183,50
5800,-0.022461,-0.2251,-0.5795899999999999,6,47,183,50
5820,-0.51904,0.198,-0.057373,6,47,183,50
5840,-0.53491,0.22974,-0.071533,6,47,183,50
5860,0.052246,0.066162,-0.07959,6,47,183,50
5880,-0.68603,-0.056152,0.021729,6,47,183,50
5900,-0.7727,0.2439,-0.18701,6,47,183,50
5920,-2.0,1.2822,-0.21265,6,47,183,50
5940,-2.0,0.6037600000000001,-0.14502,6,47,183,50
5960,-2.0,0.81519,-0.28223,6,47,183,50
5980,-0.35327,-0.074463,-0.011475,6,47,183,50
6000,-2.0,0.035889,-0.13696,6,47,183,50
6020,-1.1934,-0.070557,0.55542,6,47,183,50
6040,-0.51148,0.10523,-0.17944,6,47,183,50
6060,-0.82715,0.35864,0.000488,6,47,183,50
6080,-0.86865,0.14575,-0.09375,6,47,183,50
6100,0.48999,-0.10254,-0.16919,6,47,183,50
6120,-0.20825,0.15649,-0.18652,6,47,183,50
6140,-0.92676,0.4165,0.008545,6,47,183,50
6160,-0.6835899999999999,0.1391599999999999,-0.19385,6,47,183,50
6180,-0.92676,0.4165,0.008545,6,47,183,50
6200,-1.3564,0.081299,0.0144039999999999,6,47,183,50
6220,-0.30615,0.11157,-0.25366,6,47,183,50
6240,0.2627,0.005127,0.022705,6,47,183,50
6260,-1.1147,0.55835,-0.33618,6,47,183,50
6280,-2.0,0.9895,-0.074951,6,47,183,50
6300,0.10327,0.10327,-0.11548,6,47,183,50
6320,-0.31665,-0.09375,-0.031982,6,47,183,50
6340,-1.8599,0.8928200000000001,0.080566,6,47,183,50
6360,-1.8135,-0.10913,0.35962,6,47,183,50
6380,-1.0889,0.34668,-0.10205,6,47,183,50
6400,-0.8244600000000001,0.50488,-0.39722,6,47,183,50
6420,-2.0,0.66528,0.58227,6,47,183,50
6440,-2.0,0.65698,0.3689,6,47,183,50
6460,-0.6716300000000001,0.29077,-0.16455,6,47,183,50
6480,-0.61792,-0.097656,-0.13355,6,47,183,50
6500,-0.62915,0.68628,-0.25488,6,47,183,50
6520,0.479,-0.016846,-0.26563,6,47,183,50
6540,-1.6772,0.40747,-0.00293,6,47,183,50
6560,-2.0,0.4118600000000001,-0.30737,6,47,183,50
6580,-1.2969,0.18579,0.15479,6,47,183,50
6600,0.23389,0.12134,0.038818,6,47,183,50
6620,-2.0,0.1330599999999999,-0.21704,6,47,183,50
6640,-2.0,0.42773,1.0652,6,47,183,50
6660,-1.3274,0.33057,-0.31079,6,47,183,50
6680,-0.48779,0.14697,-0.02124,6,47,183,50
6700,-0.62915,0.68628,-0.25488,6,47,183,50
6720,0.45898,0.057617,-0.23315,6,47,183,50
6740,0.37012,-0.1814,-0.19092,6,47,183,50
6760,-1.1165,0.29273,-0.15259,6,47,183,50
6780,-0.32813,0.11768,-0.10864,6,47,183,50
6800,-0.98511,0.10986,-0.198,6,47,183,50
6820,-0.51782,0.22144,0.089111,6,47,183,50
6840,0.029053,0.17651,0.34961,6,47,183,50
6860,0.51367,-0.16382,-0.083496,6,47,183,50
6880,-2.0,-0.6411100000000001,-0.050781,6,47,183,50
6900,-0.67871,0.1340299999999999,-0.13135,7,63,186,87
6920,-1.2473,-0.15771,0.15527,7,63,186,87
6940,0.041992,-0.027832,0.0329589999999999,7,63,186,87
6960,-0.45044,0.15283,-0.10938,7,63,186,87
6980,-1.1985,0.7670899999999999,-0.4829100000000001,7,63,186,87
7000,-0.25903,0.1001,-0.271,7,63,186,87
7020,-0.5485800000000001,-0.19336,-0.51074,7,63,186,87
7040,-0.86206,0.29883,-0.25659,7,63,186,87
7060,-2.0,1.6111,-0.42676,7,63,186,87
7080,-2.0,0.12378,-0.17505,7,63,186,87
7100,0.13135,-0.2417,0.030029,7,63,186,87
7120,-1.2766,0.8501,0.002197,7,63,186,87
7140,-0.5219699999999999,0.22974,0.076416,7,63,186,87
7160,-1.1826,0.54175,-0.17749,7,63,186,87
7180,-2.0,0.34033,-0.030762,7,63,186,87
7200,-0.3606,-0.02417,-0.092285,7,63,186,87
7220,-1.3962,0.63867,-1.1367,7,63,186,87
7240,-0.5471199999999999,0.25977,-0.8781700000000001,7,63,186,87
7260,-2.0,-0.7692899999999999,-0.1875,7,63,186,87
7280,-1.5525,0.40576,0.19409,7,63,186,87
7300,-1.1826,0.54175,-0.17749,7,63,186,87
7320,-0.8295899999999999,0.34936,0.18384,7,63,186,87
7340,0.33423,0.49609,-0.21655,7,63,186,87
7360,-1.1396,0.56372,-0.25561,7,63,186,87
7380,-0.89575,0.44775,0.26294,7,63,186,87
7400,-0.71631,0.27197,-0.4663100000000001,7,63,186,87
7420,-0.7334,0.27148,-0.1059599999999999,7,63,186,87
7440,-0.8964799999999999,0.43896,-0.1557599999999999,7,63,186,87
7460,-2.0,0.36255,0.49585,7,63,186,87
7480,-1.4868,0.58838,0.5083,7,63,186,87
7500,-1.1045,-0.043213,0.095947,7,63,186,87
7520,-0.84424,0.39209,0.035645,7,63,186,87
7540,-1.9351,0.5979,0.36865,7,63,186,87
7560,-0.83862,0.1687,-0.063721,7,63,186,87
7580,-0.7307100000000001,0.1425799999999999,-0.091797,7,63,186,87
7600,-0.044434,-0.083984,-0.40698,7,63,186,87
7620,-0.62305,0.45752,-0.52246,7,63,186,87
7640,-1.134,-0.18677,-0.14307,7,63,186,87
7660,-2.0,0.4602,0.38989,7,63,186,87
7680,0.11475,-0.0754389999999999,0.20483,7,63,186,87
7700,-1.1851,0.7592800000000001,-0.24292,7,63,186,87
7720,-0.43115,0.2273,0.025879,7,63,186,87
7740,-1.4172,0.6047399999999999,0.000244,7,63,186,87
7760,-0.37109,0.25659,-0.49072,7,63,186,87
7780,-1.1582,0.42554,-0.2561,7,63,186,87
7800,-1.2256,0.68628,-0.104,7,63,186,87
7820,-0.4558100000000001,0.17505,0.052979,7,63,186,87
7840,-0.81519,-0.019287,-0.40015,7,63,186,87
7860,0.068115,-0.099854,-0.096924,7,63,186,87
7880,0.23486,-0.072021,-0.19287,7,63,186,87
7900,-0.20361,-0.0271,0.009277,7,63,186,87
7920,-1.1633,0.29419,-0.17139,7,63,186,87
7940,-0.0893549999999999,0.23071,0.041504,7,63,186,87
7960,-0.90137,0.24097,0.039795,8,23,175,57
7980,-1.8564,-0.049561,0.30249,8,23,175,57
8000,0.012451,0.040527,0.10327,8,23,175,57
8020,-0.27637,0.012695,-0.17139,8,23,175,57
8040,0.81152,-0.12793,0.019531,8,23,175,57
8060,-0.42798,0.20874,-0.11939,8,23,175,57
8080,-0.75488,0.32861,-0.036133,8,23,175,57
8100,-2.0,-0.013184,0.10254,8,23,175,57
8120,0.7544,-0.13892,-0.29541,8,23,175,57
8140,-0.9021,0.49829,-0.11353,8,23,175,57
8160,-0.5498,0.09082,-0.12817,8,23,175,57
8180,-1.1895,1.1128,-0.6091300000000001,8,23,175,57
8200,-0.48047,0.097168,0.080322,8,23,175,57
8220,-0.31738,-0.19067,-0.35718,8,23,175,57
8240,-1.8372,0.30005,0.56201,8,23,175,57
8260,-1.2236,0.47754,-0.28686,8,23,175,57
8280,-2.0,0.5139199999999999,0.30689,8,23,175,57
8300,-0.37231,-0.036865,0.29053,8,23,175,57
8320,-1.9028,0.38501,0.47998,8,23,175,57
8340,-1.4385,0.6994600000000001,-0.11279,8,23,175,57
8360,1.0466,-0.15381,-0.49487,8,23,175,57
8380,-2.0,1.1924,0.6023,8,23,175,57
8400,-0.80688,0.50513,-0.055664,8,23,175,57
8420,-0.90234,0.51025,-0.46802,8,23,175,57
8440,-2.0,-0.1665,1.4077,8,23,175,57
8460,0.7832,-0.20483,-0.2561,8,23,175,57
8480,-0.448,0.24902,-0.198,8,23,175,57
8500,-0.66284,0.56934,-0.27148,8,23,175,57
8520,-1.8225,0.003906,0.2085,8,23,175,57
8540,-0.39844,-0.040283,-0.1425799999999999,8,23,175,57
8560,-0.66968,0.26709,-0.20557,8,23,175,57
8580,-2.0,-0.49341,-0.072021,8,23,175,57
8600,-1.4004,1.1033,-1.3723,8,23,175,57
8620,-0.24121,-0.29102,0.48047,8,23,175,57
8640,-0.89331,0.22827,0.001465,8,23,175,57
8660,-0.1167,-0.22437,0.39087,8,23,175,57
8680,-0.23218,0.040039,-0.1521,8,23,175,57
8700,-0.088867,0.012695,-0.040283,8,23,175,57
8720,-1.6980000000000002,0.004639,0.085449,8,23,175,57
8740,-0.80688,0.38843,-0.45825,8,23,175,57
8760,-2.0,1.198,0.40869,8,23,175,57
8780,-0.4773,0.30859,-0.18726,8,23,175,57
8800,-0.7963899999999999,0.42407,-0.078613,8,23,175,57
8820,-0.90918,0.19287,-0.30469,8,23,175,57
8840,-1.959,0.49536,0.37842,8,23,175,57
8860,-0.7558600000000001,0.61768,0.35815,8,23,175,57
8880,-0.5454100000000001,-0.11816,-0.30664,8,23,175,57
8900,-0.52905,-0.0815429999999999,-0.0676269999999999,8,23,175,57
8920,-0.59985,0.21021,-0.19214,8,23,175,57
8940,-1.8513,0.18945,0.40625,8,23,175,57
8960,-1.1895,1.1128,-0.6091300000000001,8,23,175,57
8980,-0.95264,0.30957,0.006104,8,23,175,57
9000,-0.71045,0.16162,-0.063721,8,23,175,57
9020,-2.0,0.005859,-0.96704,8,23,175,57
9040,0.0893549999999999,-0.037109,-0.033203,8,23,175,57
9060,-1.9282,1.0547,-0.52222,8,23,175,57
9080,-2.0,0.42065,0.078125,8,23,175,57
9100,1.2935,0.21948,-1.4016,8,23,175,57
9120,-2.0,0.43604,0.051025,8,23,175,57
9140,-0.93921,0.49414,-0.031494,8,23,175,57
9160,0.53198,-0.37451,0.75781,8,23,175,57
9180,-0.8337399999999999,0.26807,-0.14575,8,23,175,57
9200,0.24951,-0.12451,0.042725,8,23,175,57
9220,-1.7725,0.79785,0.23901,8,23,175,57
9240,0.31934,-0.11865,0.032227,8,23,175,57
9260,-0.43555,-0.014648,-0.031006,8,23,175,57
9280,-1.1843,0.46582,-0.033447,8,23,175,57
9300,-0.61352,0.25,-0.14331,8,23,175,57
9320,-0.83105,0.62793,-0.073242,8,23,175,57
9340,-1.7324,0.25513,-0.048828,8,23,175,57
9360,-0.81372,0.30469,-0.35864,8,23,175,57
9380,0.36157,-0.001709,-0.11694,8,23,175,57
9400,-0.35596,-0.02124,0.2981,8,23,175,57
9420,-1.0159,0.061035,-0.33594,8,23,175,57
9440,-1.5505,1.4253,-0.58472,8,23,175,57
9460,-2.0,-0.002197,-0.30176,8,23,175,57
9480,-2.0,1.009,0.23023,8,23,175,57
9500,-1.6726,0.004883,0.27002,9,55,187,101
9520,0.43628,-0.13623,-0.11377,9,55,187,101
9540,-1.0544,0.20435,-0.0856929999999999,9,55,187,101
9560,-1.0459,0.27344,-0.26904,9,55,187,101
9580,-0.23218,0.040039,-0.1521,9,55,187,101
9600,0.4204100000000001,-0.18335,-0.15503,9,55,187,101
9620,-0.59863,0.025146,-0.24292,9,55,187,101
9640,-2.0,-0.52856,0.67847,9,55,187,101
9660,-2.0,0.41919,-0.020752,9,55,187,101
9680,0.14526,0.08252,-0.12451,9,55,187,101
9700,-0.41675,0.12402,0.037598,9,55,187,101
9720,-0.81665,0.6018100000000001,-0.37378,9,55,187,101
9740,-0.31006,0.008301,-0.13355,9,55,187,101
9760,-0.61865,0.27222,-0.15454,9,55,187,101
9780,-0.8720700000000001,0.43652,-0.17749,9,55,187,101
9800,-0.49805,0.005127,-0.003174,9,55,187,101
9820,-0.68677,0.28955,0.087402,9,55,187,101
9840,-0.5813,-0.024902,-0.26904,9,55,187,101
9860,-0.8864799999999999,0.43604,-0.17261,9,55,187,101
9880,-0.49219,0.41138,-0.12549,9,55,187,101
9900,-1.1382,0.44507,-0.49194,9,55,187,101
9920,-0.9668,-0.54273,0.045654,9,55,187,101
9940,-2.0,0.56665,-0.8689,9,55,187,101
9960,0.2697699999999999,0.16089,-0.12402,9,55,187,101
9980,-1.0808,0.33789,-0.3584,9,55,187,101
10000,-0.75855,-0.003662,0.2937,9,55,187,101
10020,-2.0,0.75171,-0.25195,9,55,187,101
10040,-2.0,0.024658,-0.53272,9,55,187,101
10060,-0.51343,0.5061,-0.65698,9,55,187,101
10080,-0.95386,0.16309,-0.13672,9,55,187,101
10100,-2.0,0.56665,-0.8689,9,55,187,101
10120,-0.80102,0.15796,-0.1294,9,55,187,101
10140,-1.7334,0.32959,-0.29858,9,55,187,101
10160,-1.0024,0.057861,-0.18188,9,55,187,101
10180,-1.1147,0.55835,-0.33618,9,55,187,101
10200,-0.4270000000000001,-0.10523,-0.013672,9,55,187,101
10220,-0.81885,0.39258,-0.31958,9,55,187,101
10240,-0.11133,0.23315,0.29419,9,55,187,101
10260,-2.0,1.8542,-2.0,9,55,187,101
10280,-1.3892,0.2273,0.15063,9,55,187,101
10300,-1.1826,0.32056,-0.38306,9,55,187,101
10320,-1.1929,0.4411600000000001,-0.3186,9,55,187,101
10340,-0.72583,0.11304,0.2124,9,55,187,101
10360,-1.073,0.16089,0.34351,9,55,187,101
10380,-1.7480000000000002,0.068359,0.21777,9,55,187,101
10400,-2.0,0.3147,-1.1553,9,55,187,101
10420,-1.6726,0.004883,0.27002,9,55,187,101
10440,-2.0,0.7002,-0.8286100000000001,9,55,187,101
10460,0.090576,0.10693,-0.34473,9,55,187,101
10480,-1.0715,0.24341,-0.072754,9,55,187,101
10500,-0.6933600000000001,0.18774,0.000244,9,55,187,101
10520,-0.57495,0.19531,-0.0791019999999999,9,55,187,101
10540,-0.30762,-0.17432,0.26489,9,55,187,101
10560,-0.91406,0.3877,-0.32983,9,55,187,101
10580,-0.31665,-0.09375,-0.031982,9,55,187,101
10600,-0.69238,0.022461,-0.21582,9,55,187,101
10620,-1.8213,0.044922,-0.44556,10,23,177,75
10640,-0.49854,0.56787,-0.020752,10,23,177,75
10660,-2.0,-0.34497,-0.004395,10,23,177,75
10680,-0.5022,0.18726,-0.026855,10,23,177,75
10700,-1.0413,0.055908,-0.37891,10,23,177,75
10720,-2.0,0.18555,0.022217,10,23,177,75
10740,-0.62402,0.2373,-0.11816,10,23,177,75
10760,-1.5686,0.59058,0.6643100000000001,10,23,177,75
10780,-1.4175,0.17602,0.38135,10,23,177,75
10800,-0.86426,0.50708,-0.21704,10,23,177,75
10820,-0.99194,0.25928,-0.1272,10,23,177,75
10840,0.2793,-0.09082,-0.008301,10,23,177,75
10860,-1.3892,0.2273,0.15063,10,23,177,75
10880,-2.0,0.005859,-0.96704,10,23,177,75
10900,-0.7297399999999999,0.21313,0.1814,10,23,177,75
10920,-0.80933,0.54419,-1.0081,10,23,177,75
10940,-2.0,-0.01709,-0.020996,10,23,177,75
10960,0.17944,0.060547,-0.066895,10,23,177,75
10980,0.45483,-0.067139,0.11377,10,23,177,75
11000,0.31885,-0.12695,0.19849,10,23,177,75
11020,1.0461,0.26294,-0.56592,10,23,177,75
11040,-1.7886,0.65942,-0.86279,10,23,177,75
11060,-0.74805,0.25098,-0.10132,10,23,177,75
11080,-0.89966,0.30054,-0.26709,10,23,177,75
11100,-0.16846,0.26758,-0.32422,10,23,177,75
11120,-2.0,0.61182,0.41675,10,23,177,75
11140,-2.0,0.015137,-0.090088,10,23,177,75
11160,-0.79956,0.38794,0.050781,10,23,177,75
11180,-1.7114,0.802,-0.38696,10,23,177,75
11200,-1.6145,-0.20215,-0.29028,10,23,177,75
11220,0.29663,-0.050781,-0.099121,10,23,177,75
11240,-0.57007,0.39941,-0.25244,10,23,177,75
11260,-0.001221,0.012207,-0.11816,10,23,177,75
11280,-0.50269,0.030518,-0.14185,10,23,177,75
11300,-2.0,0.095703,-0.90283,10,23,177,75
11320,-1.085,0.6919,-0.27466,10,23,177,75
11340,-2.0,-0.51636,1.0645,10,23,177,75
11360,0.32593,-0.066895,-0.1958,10,23,177,75
11380,-0.7731899999999999,0.023682,-0.11035,10,23,177,75
11400,-0.67847,0.41113,0.22412,10,23,177,75
11420,-2.0,-0.021973,0.43091,10,23,177,75
11440,-1.533,0.01709,0.70654,10,23,177,75
11460,-0.83862,0.38623,-0.33276,10,23,177,75
11480,-0.54419,-0.17139,0.23804,10,23,177,75
11500,-0.56226,0.1919,-0.37524,10,23,177,75
11520,-2.0,0.39648,-0.1438,10,23,177,75
11540,-1.3186,0.50562,-0.31201,10,23,177,75
11560,-2.0,0.026123,0.043945,10,23,177,75
11580,-0.35132,0.20068,-0.23413,10,23,177,75
11600,-0.69629,0.36475,-0.3208,10,23,177,75
11620,-1.1633,0.29419,-0.17139,10,23,177,75
11640,-2.0,1.2222,-0.4248,10,23,177,75
11660,0.12427,-0.15674,0.10547,10,23,177,75
11680,-0.45264,0.066162,-0.08374,10,23,177,75
11700,-0.24097,-0.21094,0.064453,10,23,177,75
11720,-0.6359899999999999,0.3352,-0.44751,10,23,177,75
11740,-1.3347,0.92383,-0.23584,10,23,177,75
11760,1.5911,0.039551,-0.10645,10,23,177,75
11780,-2.0,0.2373,-0.66602,11,26,169,94
11800,0.4978,-0.19531,-0.34155,11,26,169,94
11820,-0.81177,0.37842,-0.22583,11,26,169,94
11840,-2.0,0.044922,0.5112300000000001,11,26,169,94
11860,-0.93677,0.39038,-0.57544,11,26,169,94
11880,-1.8921,0.15088,0.2854,11,26,169,94
11900,-0.89941,0.67871,-0.44995,11,26,169,94
11920,-2.0,1.1924,0.6023,11,26,169,94
11940,-0.48315,0.18066,-0.65918,11,26,169,94
11960,-0.82495,-0.3352,-0.02002,11,26,169,94
11980,1.0208,-0.27515,0.37061,11,26,169,94
12000,0.2334,-0.23193,0.01123,11,26,169,94
12020,-1.05,0.1394,-0.34253,11,26,169,94
12040,-2.0,-0.30762,-0.23315,11,26,169,94
12060,-2.0,0.024658,-0.53272,11,26,169,94
12080,-0.9856,0.32935,-0.14282,11,26,169,94
12100,1.0015,0.40918,-0.54077,11,26,169,94
12120,-0.8811,0.20923,-0.37915,11,26,169,94
12140,-0.66309,-0.072266,-0.063965,11,26,169,94
12160,-1.7773,1.5186,-0.34668,11,26,169,94
12180,-1.0369,0.34009,-0.2627,11,26,169,94
12200,-0.49683,0.13159,-0.15161,11,26,169,94
12220,-0.97363,0.45337,-0.065186,11,26,169,94
12240,-0.40186,-0.001953,0.10303,11,26,169,94
12260,0.26099,0.020264,0.03125,11,26,169,94
12280,-0.87524,0.54102,-0.37378,11,26,169,94
12300,-0.40698,-0.02832,-0.14063,11,26,169,94
12320,-2.0,-0.023193,0.66333,11,26,169,94
12340,-2.0,0.22437,0.10181,11,26,169,94
12360,-2.0,0.42602,0.40845,11,26,169,94
12380,-0.8374,0.18628,0.033691,11,26,169,94
12400,-1.2505,0.21313,0.038574,11,26,169,94
12420,-0.8964799999999999,0.43896,-0.1557599999999999,11,26,169,94
12440,-1.2998,0.44995,-0.73975,11,26,169,94
12460,-2.0,0.27856,-0.031494,11,26,169,94
12480,-0.31177,0.28027,-0.8015100000000001,11,26,169,94
12500,0.59863,-0.17188,-0.25293,11,26,169,94
12520,-1.5952,0.52393,-0.035645,11,26,169,94
12540,-2.0,-0.19727,-0.35889,11,26,169,94
12560,-1.01,0.7731899999999999,-0.061523,11,26,169,94
12580,-0.40674,0.068604,-0.18066,11,26,169,94
12600,-0.9003899999999999,0.26074,-0.043701,11,26,169,94
12620,-0.36597,0.11865,-0.083008,11,26,169,94
12640,-2.0,0.75757,-0.70068,11,26,169,94
12660,-0.1394,-0.011475,-0.08252,11,26,169,94
12680,-0.40015,-0.040039,-0.34473,11,26,169,94
12700,-0.5173300000000001,0.18433,-0.008057,11,26,169,94
12720,-1.5952,0.074951,0.2644,11,26,169,94
12740,-0.4751,0.22388,-0.45557,11,26,169,94
12760,-1.2095,0.23096,-0.0773929999999999,11,26,169,94
12780,-0.26367,-0.04248,-0.033203,11,26,169,94
12800,-1.2866,0.25635,-0.24072,11,26,169,94
12820,-0.51807,0.79297,-0.29321,11,26,169,94
12840,0.1787099999999999,0.1062,0.017822,11,26,169,94
12860,-0.21704,-0.15015,0.38672,11,26,169,94
12880,-1.0652,0.73047,-0.48169,12,64,172,75
12900,-1.5867,0.81152,-0.66992,12,64,172,75
12920,-0.053467,-0.12036,-0.068848,12,64,172,75
12940,-1.3335,0.034424,-0.30005,12,64,172,75
12960,-0.33032,-0.00415,-0.24512,12,64,172,75
12980,-2.0,-0.17749,0.41455,12,64,172,75
13000,-0.7871100000000001,0.17651,-0.26318,12,64,172,75
13020,-0.7727,0.2439,-0.18701,12,64,172,75
13040,0.55029,-0.22607,-0.12769,12,64,172,75
13060,-2.0,0.36963,0.35889,12,64,172,75
13080,-2.0,1.272,-0.51221,12,64,172,75
13100,-0.6731,0.29614,-0.18896,12,64,172,75
13120,-1.4868,0.58838,0.5083,12,64,172,75
13140,-0.91406,0.3877,-0.32983,12,64,172,75
13160,-0.8562,0.56226,-0.28906,12,64,172,75
13180,-0.5783699999999999,0.1499,-0.22315,12,64,172,75
13200,-0.70239,0.39697,-0.053955,12,64,172,75
13220,-0.60352,0.55469,-0.23975,12,64,172,75
13240,-2.0,0.29761,0.3396,12,64,172,75
13260,0.67261,-0.17725,-0.29932,12,64,172,75
13280,-0.62207,0.24609,-0.10864,12,64,172,75
13300,0.71216,-0.001465,-0.092285,12,64,172,75
13320,-0.79004,0.22827,0.091553,12,64,172,75
13340,-1.731,0.78369,-0.35596,12,64,172,75
13360,-0.21191,0.095459,-0.034912,12,64,172,75
13380,-1.0911,0.37402,-0.33569,12,64,172,75
13400,-0.35815,-0.067139,-0.023926,12,64,172,75
13420,-0.8579100000000001,0.20776,-0.0852049999999999,12,64,172,75
13440,-0.68066,0.075195,-0.44531,12,64,172,75
13460,-2.0,0.21606,0.20508,12,64,172,75
13480,-2.0,0.36963,0.35889,12,64,172,75
13500,-0.40576,-0.14307,-0.1333,12,64,172,75
13520,-1.281,0.698,-0.59912,12,64,172,75
13540,-1.4797,0.66065,0.083008,12,64,172,75
13560,-1.1677,0.48975,-0.21997,12,64,172,75
13580,-0.7905300000000001,0.19605,0.30835,12,64,172,75
13600,-2.0,1.9999,-1.2542,12,64,172,75
13620,-0.8696299999999999,0.52466,-0.46997,12,64,172,75
13640,-2.0,0.78394,-0.42676,12,64,172,75
13660,0.035889,0.098389,0.18604,12,64,172,75
13680,-0.3010199999999999,-0.05542,0.14087,13,43,183,104
13700,-0.5825199999999999,-0.44751,0.030762,13,43,183,104
13720,-0.37012,0.23828,0.040771,13,43,183,104
13740,-0.58423,0.40186,-0.076904,13,43,183,104
13760,-1.1853,0.23682,-0.46948,13,43,183,104
13780,-0.61255,0.18457,-0.40283,13,43,183,104
13800,-2.0,0.62598,0.21704,13,43,183,104
13820,-1.7114,0.802,-0.38696,13,43,183,104
13840,0.51367,-0.16382,-0.083496,13,43,183,104
13860,-0.96826,0.20605,-0.28711,13,43,183,104
13880,-1.6721,0.39477,0.0979,13,43,183,104
13900,-1.0212,0.4082,0.012695,13,43,183,104
13920,-0.59985,0.1853,0.001465,13,43,183,104
13940,-1.2622,0.53223,0.3772,13,43,183,104
13960,-2.0,-0.45386,0.63379,13,43,183,104
13980,-0.64453,-0.095215,-0.0856929999999999,13,43,183,104
14000,-0.7087399999999999,0.1106,-0.25855,13,43,183,104
14020,-0.12402,0.080811,-0.020996,13,43,183,104
14040,-1.6392,0.29175,0.43384,13,43,183,104
14060,-1.0522,0.48975,-0.22925,13,43,183,104
14080,-0.42261,0.062744,0.12012,13,43,183,104
14100,-0.7087399999999999,-0.24854,0.005615,13,43,183,104
14120,0.17163,-0.19067,0.019531,13,43,183,104
14140,0.47949,-0.097412,-0.13989,13,43,183,104
14160,-2.0,0.064453,0.34912,13,43,183,104
14180,0.86206,-0.5412600000000001,-0.21729,13,43,183,104
14200,0.698,-0.021729,0.1189,13,43,183,104
14220,-0.40698,0.080078,-0.1853,13,43,183,104
14240,-1.1191,0.36352,-0.12549,13,43,183,104
14260,-1.3811,0.61157,-0.17969,13,43,183,104
14280,-0.77978,0.016113,0.12891,13,43,183,104
14300,-0.75342,0.20605,-0.21362,13,43,183,104
14320,-2.0,-0.38037,-1.165,13,43,183,104
14340,-0.40088,-0.020752,-0.049561,13,43,183,104
14360,-0.61352,0.25,-0.14331,13,43,183,104
14380,-1.3035,0.46851,-0.25684,13,43,183,104
14400,-1.6807,0.4856,0.74365,13,43,183,104
14420,-2.0,0.7002,-0.8286100000000001,13,43,183,104
14440,-0.1023,0.30078,-0.081787,13,43,183,104
14460,-0.8361799999999999,0.35327,-0.39014,13,43,183,104
14480,-1.3586,0.4245600000000001,-0.14209,13,43,183,104
14500,-0.37598,-0.024414,-0.1106,13,43,183,104
14520,0.39868,0.013428,0.074219,13,43,183,104
14540,-0.92749,0.43335,-0.20947,13,43,183,104
14560,-0.75342,0.20605,-0.21362,13,43,183,104
14580,-1.2332,0.67529,-0.090088,13,43,183,104
14600,-0.9519,0.54175,-0.38159,13,43,183,104
14620,-0.32031,0.24365,-0.049316,13,43,183,104
14640,-1.6462,0.67969,0.35181,13,43,183,104
14660,-1.6484,0.035156,0.45532,13,43,183,104
14680,-2.0,0.30469,0.30371,13,43,183,104
14700,-0.66089,0.41089,0.079834,14,20,175,50
14720,-1.449,0.68579,-0.20898,14,20,175,50
14740,-0.7148399999999999,0.56372,-0.11426,14,20,175,50
14760,-0.21973,-0.004883,-0.16626,14,20,175,50
14780,-0.64404,0.18921,-0.061523,14,20,175,50
14800,-0.31738,-0.19067,-0.35718,14,20,175,50
14820,-1.6516,0.32471,-0.29248,14,20,175,50
14840,-2.0,-0.56055,0.68823,14,20,175,50
14860,-0.92871,0.24487,-0.60034,14,20,175,50
14880,-1.5117,0.66675,0.042969,14,20,175,50
14900,-0.99292,0.17725,0.13355,14,20,175,50
14920,-0.4541,0.026855,0.14844,14,20,175,50
14940,-0.8327600000000001,0.52685,-0.41235,14,20,175,50
14960,-0.8303200000000001,0.13745,-0.31982,14,20,175,50
14980,-2.0,0.41455,-0.54077,14,20,175,50
15000,-0.63989,0.2644,0.051025,14,20,175,50
15020,-0.48926,0.21118,-0.026123,14,20,175,50
15040,-0.43408,0.21899,-0.57471,14,20,175,50
15060,-0.8623,0.19556,-0.41211,14,20,175,50
15080,0.31934,-0.33447,0.47144,14,20,175,50
15100,-1.842,0.52515,-1.0679,14,20,175,50
15120,-0.6079100000000001,0.18237,-0.076904,14,20,175,50
15140,-0.36939,0.21997,-0.25537,14,20,175,50
15160,0.2583,-0.20727,-0.005859,14,20,175,50
15180,0.29541,-0.1521,-0.14819,14,20,175,50
15200,-0.99902,0.068359,-0.004639,14,20,175,50
15220,0.10205,0.048828,-0.010742,14,20,175,50
15240,-0.7998,0.27002,-0.13135,14,20,175,50
15260,-2.0,0.39648,-0.1438,14,20,175,50
15280,-1.5869,0.604,-0.20898,14,20,175,50
15300,-1.0737,0.6047399999999999,-0.31274,14,20,175,50
15320,-0.77954,0.32324,-0.16846,14,20,175,50
15340,-1.8845,0.5837399999999999,-0.59131,14,20,175,50
15360,-0.52661,0.025635,-0.1355,14,20,175,50
15380,-0.6713899999999999,0.48682,0.0832519999999999,14,20,175,50
15400,-0.80933,0.5039100000000001,-0.33887,14,20,175,50
15420,-0.17505,-0.044434,0.16357,14,20,175,50
15440,1.1035,0.43091,-0.40625,14,20,175,50
15460,-2.0,0.44629,1.5947,14,20,175,50
15480,0.17554,-0.15991,-0.007568,14,20,175,50
15500,-1.2996,0.45996,0.12793,14,20,175,50
15520,-0.53833,-0.009033,0.11401,14,20,175,50
15540,-0.50269,0.030518,-0.14185,14,20,175,50
15560,-0.91138,0.35962,-0.4743600000000001,14,20,175,50
15580,-0.47485,-0.009766,-0.21533,14,20,175,50
15600,-0.78565,-0.14185,0.53272,14,20,175,50
15620,-1.7334,0.32959,-0.29858,14,20,175,50
15640,-0.22461,0.2697699999999999,-0.38013,14,20,175,50
15660,-0.12402,0.080811,-0.020996,14,20,175,50
15680,-1.3145,-0.045166,-0.25659,14,20,175,50
15700,-0.88013,0.4707,-0.15063,14,20,175,50
15720,-0.84741,0.46045,-0.27856,14,20,175,50
15740,-0.48657,0.016357,0.039551,14,20,175,50
15760,-1.0479,0.17188,-0.31079,14,20,175,50
15780,-0.2561,-0.087402,-0.017578,14,20,175,50
15800,-0.64185,0.30811,-0.091797,15,40,192,65
15820,0.43628,-0.13623,-0.11377,15,40,192,65
15840,-0.80762,0.48755,-0.375,15,40,192,65
15860,-0.61206,0.4165,-0.050049,15,40,192,65
15880,1.0461,0.26294,-0.56592,15,40,192,65
15900,-0.53101,0.052246,-0.35034,15,40,192,65
15920,-0.88013,0.4707,-0.15063,15,40,192,65
15940,-0.33447,0.13721,-0.23193,15,40,192,65
15960,-0.8999,0.18164,-0.012939,15,40,192,65
15980,-2.0,0.088135,-0.025391,15,40,192,65
16000,-2.0,0.092285,0.69238,15,40,192,65
16020,-1.147,0.17798,0.44922,15,40,192,65
16040,-0.93921,0.49414,-0.031494,15,40,192,65
16060,-0.65381,0.5896,-0.3999,15,40,192,65
16080,-1.2598,0.30933,-0.039551,15,40,192,65
16100,-2.0,1.7976,-0.2439,15,40,192,65
16120,1.0811,-0.13135,-0.073242,15,40,192,65
16140,-1.4109,0.24805,0.008301,15,40,192,65
16160,-1.0825,0.59692,-0.50342,15,40,192,65
16180,-1.0652,0.73047,-0.48169,15,40,192,65
16200,-2.0,0.4751,0.8183600000000001,15,40,192,65
16220,-1.0986,0.27808,-0.05957,15,40,192,65
16240,-2.0,0.65308,0.005127,15,40,192,65
16260,-0.58496,0.00708,0.12646,15,40,192,65
16280,-2.0,-0.87671,0.40503,15,40,192,65
16300,-0.43628,0.11133,-0.0979,15,40,192,65
16320,-0.56274,0.34033,-0.21802,15,40,192,65
16340,-0.67871,0.1340299999999999,-0.13135,15,40,192,65
16360,-1.1021,0.20117,-0.14551,15,40,192,65
16380,-1.5168,0.78882,-0.47852,15,40,192,65
16400,-0.63843,0.4516600000000001,0.12329,15,40,192,65
16420,0.37915,0.19775,0.18848,15,40,192,65
16440,-1.1709,0.1057099999999999,-0.27466,15,40,192,65
16460,-0.42847,0.28467,-1.3098,15,40,192,65
16480,-1.6469999999999998,0.28467,0.55298,15,40,192,65
16500,-1.0359,-0.065674,-0.19287,15,40,192,65
16520,-0.8588899999999999,0.32349,-0.29663,15,40,192,65
16540,-1.1521,0.6723600000000001,0.00415,15,40,192,65
16560,-0.34912,0.27588,-0.25464,15,40,192,65
16580,-1.6973,0.23218,0.24463,15,40,192,65
16600,-2.0,0.22949,0.52612,15,40,192,65
16620,-0.97974,0.30933,-0.17651,15,40,192,65
16640,-2.0,0.90283,-0.37231,15,40,192,65
16660,-1.7754,0.78394,0.11108,15,40,192,65
16680,0.51172,0.032715,-0.13355,15,40,192,65
16700,-0.42895,0.31567,-0.52832,15,40,192,65
16720,-0.95313,0.22437,-0.24634,15,40,192,65
16740,-0.6423300000000001,0.56103,-0.45679,16,55,157,84
16760,-2.0,0.82275,-0.37378,16,55,157,84
16780,-2.0,0.064453,0.34912,16,55,157,84
16800,-2.0,-0.023682,-1.1648,16,55,157,84
16820,-1.124,0.3584,-0.086914,16,55,157,84
16840,-0.23852,0.1789599999999999,-0.14966,16,55,157,84
16860,-0.91577,-0.026367,-0.017822,16,55,157,84
16880,-1.9465,1.2361,0.40356,16,55,157,84
16900,-0.80933,-0.16284,-0.31934,16,55,157,84
16920,-2.0,0.075195,0.18213,16,55,157,84
16940,-1.8274,1.3237,-0.18701,16,55,157,84
16960,-0.78589,0.42895,-0.23486,16,55,157,84
16980,-0.75415,0.14429,-0.21924,16,55,157,84
17000,-0.62427,0.26929,-0.13135,16,55,157,84
17020,-0.75537,0.38672,-0.046143,16,55,157,84
17040,0.068115,-0.099854,-0.096924,16,55,157,84
17060,-1.6619,0.77295,-0.6108399999999999,16,55,157,84
17080,0.86206,-0.5412600000000001,-0.21729,16,55,157,84
17100,-0.36352,0.11035,-0.16797,16,55,157,84
17120,-1.9175,0.8781700000000001,-0.31665,16,55,157,84
17140,-0.90918,0.19287,-0.30469,16,55,157,84
17160,-1.0752,0.3042,-0.071045,16,55,157,84
17180,-0.89331,0.27393,-0.3999,16,55,157,84
17200,-1.135,0.45996,0.068115,16,55,157,84
17220,-0.52344,0.061523,-0.067139,16,55,157,84
17240,-0.99805,0.6108399999999999,-0.012939,16,55,157,84
17260,-0.61426,0.27441,-0.14404,16,55,157,84
17280,-1.3242,0.52344,0.35986,16,55,157,84
17300,-0.3335,0.061768,-0.4541,16,55,157,84
17320,-1.0024,0.057861,-0.18188,16,55,157,84
17340,0.41016,0.37671,-0.26807,16,55,157,84
17360,0.12354,0.1328099999999999,-0.21118,16,55,157,84
17380,-1.3884,-0.018311,0.32153,16,55,157,84
17400,-1.5645,0.30298,0.5844699999999999,16,55,157,84
17420,-1.0867,0.6037600000000001,-0.10742,16,55,157,84
17440,-0.35425,0.41577,-0.11426,16,55,157,84
17460,-2.0,1.9999,-0.038574,16,55,157,84
17480,-0.79614,0.41577,-0.19043,16,55,157,84
17500,-1.219,0.035889,-0.058838,16,55,157,84
17520,-2.0,0.36987,0.5542,16,55,157,84
17540,-0.43555,-0.047607,-0.032227,16,55,157,84
17560,-0.28516,-0.11792,-0.14917,16,55,157,84
17580,-1.0364,0.27856,-0.68457,16,55,157,84
17600,-0.94653,0.2605,-0.006104,16,55,157,84
17620,-0.14941,-0.010254,0.016113,16,55,157,84
17640,-1.3674,0.2439,-0.13355,16,55,157,84
17660,-0.28931,0.027344,-0.099121,16,55,157,84
17680,-0.096924,0.05957,-0.22705,16,55,157,84
17700,-1.5593,0.7124,-0.30005,16,55,157,84
17720,-2.0,0.000732,0.72632,16,55,157,84
17740,-2.0,1.7585,-1.491,16,55,157,84
17760,-0.67847,0.41113,0.22412,16,55,157,84
17780,-1.3035,0.46851,-0.25684,16,55,157,84
17800,-2.0,0.80371,-0.26855,16,55,157,84
17820,-0.8779299999999999,0.32788,-0.10523,17,30,178,88
17840,-1.2471,0.41382,-0.5253899999999999,17,30,178,88
17860,-0.97754,0.29541,0.21802,17,30,178,88
17880,-0.57935,0.023193,-0.18359,17,30,178,88
17900,-2.0,0.5505399999999999,-0.17505,17,30,178,88
17920,-1.1592,0.36621,-0.43945,17,30,178,88
17940,0.99048,0.21533,-0.042969,17,30,178,88
17960,-0.30151,0.25635,-0.38159,17,30,178,88
17980,0.17554,-0.15991,-0.007568,17,30,178,88
18000,-0.26563,-0.1582,-0.11035,17,30,178,88
18020,-0.012207,0.018311,0.072021,17,30,178,88
18040,-0.015869,-0.18921,0.056152,17,30,178,88
18060,0.49439,-0.024658,-0.50147,17,30,178,88
18080,0.064209,-0.016602,-0.15479,17,30,178,88
18100,-0.21704,-0.15015,0.38672,17,30,178,88
18120,-2.0,1.2039,-0.26392,17,30,178,88
18140,1.1199,0.28125,-0.28223,17,30,178,88
18160,-0.5058600000000001,0.18408,-0.23413,17,30,178,88
18180,-0.21191,0.095459,-0.034912,17,30,178,88
18200,-2.0,1.6267,-0.25903,17,30,178,88
18220,0.18677,0.14185,-0.0622559999999999,17,30,178,88
18240,-0.58667,0.098145,-0.13818,17,30,178,88
18260,-1.9683,0.28491,0.27002,17,30,178,88
18280,-0.91748,0.33496,0.003662,17,30,178,88
18300,-0.38794,-0.0700679999999999,-0.29224,17,30,178,88
18320,-0.41553,-0.032715,0.005615,17,30,178,88
18340,-1.8062,0.80176,0.053711,17,30,178,88
18360,-0.022461,-0.2251,-0.5795899999999999,17,30,178,88
18380,0.064209,-0.016602,-0.15479,17,30,178,88
18400,-0.12402,0.029785,-0.035156,17,30,178,88
18420,-0.5896,0.10205,-0.15723,17,30,178,88
18440,-0.66089,0.46777,-0.45386,17,30,178,88
18460,-1.0012,0.30249,-0.21143,17,30,178,88
18480,-0.48804,0.31543,-0.27441,17,30,178,88
18500,-2.0,-0.012451,-0.060059,17,30,178,88
18520,-0.5471199999999999,0.019043,-0.047607,17,30,178,88
18540,-0.86108,0.75122,-0.40576,17,30,178,88
18560,-0.83252,0.34155,-0.21265,17,30,178,88
18580,-0.95874,0.16016,-0.10791,17,30,178,88
18600,-0.64746,0.27808,-0.093018,17,30,178,88
18620,-1.238,0.5127,0.057373,17,30,178,88
18640,0.030762,0.10815,-0.1330599999999999,17,30,178,88
18660,-0.70239,0.39697,-0.053955,17,30,178,88
18680,-0.8352,0.44653,-0.1342799999999999,17,30,178,88
18700,-0.0144039999999999,0.095459,-0.081787,17,30,178,88
18720,-0.76636,-0.13013,0.0354,17,30,178,88
18740,-0.39844,-0.040283,-0.1425799999999999,17,30,178,88
18760,-0.19898,0.089844,0.27026,17,30,178,88
18780,-1.1294,0.14477,0.085449,17,30,178,88
18800,-0.58032,0.21558,-0.12329,17,30,178,88
18820,0.1394,-0.37451,0.1853,17,30,178,88
18840,0.28003,0.007568,0.00708,17,30,178,88
18860,-1.2141,0.1189,0.13379,17,30,178,88
18880,0.00415,0.054688,-0.11426,17,30,178,88
18900,-1.0632,0.41797,-0.12256,17,30,178,88
18920,-1.0718,0.33179,0.036377,18,62,151,76
18940,-0.80835,0.12866,-0.08374,18,62,151,76
18960,-1.7283,0.44507,0.91528,18,62,151,76
18980,-0.62231,0.029785,-0.17651,18,62,151,76
19000,-2.0,0.72925,0.54102,18,62,151,76
19020,-0.5874,0.027588,-0.14868,18,62,151,76
19040,-0.61792,-0.097656,-0.13355,18,62,151,76
19060,-0.19898,0.089844,0.27026,18,62,151,76
19080,-1.7598,0.62036,-0.46191,18,62,151,76
19100,-0.56274,0.34033,-0.21802,18,62,151,76
19120,-0.22461,0.2697699999999999,-0.38013,18,62,151,76
19140,-0.71924,0.33887,0.19678,18,62,151,76
19160,-1.3506,0.4812,-0.040283,18,62,151,76
19180,-0.89331,0.22827,0.001465,18,62,151,76
19200,-0.20264,-0.1416,-0.18799,18,62,151,76
19220,-0.48852,0.072998,-0.28003,18,62,151,76
19240,-1.1177,-0.070801,0.125,18,62,151,76
19260,-0.8169,0.24731,0.034424,18,62,151,76
19280,0.7639199999999999,-0.087402,-0.3977,18,62,151,76
19300,-0.8169,0.24731,0.034424,18,62,151,76
19320,-0.45532,0.08252,-0.27051,18,62,151,76
19340,-0.19702,-0.14551,0.2937,18,62,151,76
19360,-1.8772,0.55688,0.31421,18,62,151,76
19380,-0.84131,-0.1789599999999999,-0.040771,18,62,151,76
19400,-0.72144,0.17651,-0.16455,18,62,151,76
19420,-1.7659,0.37695,0.5473600000000001,18,62,151,76
19440,-0.40137,0.33398,-0.095459,18,62,151,76
19460,-0.36841,0.12695,0.27051,18,62,151,76
19480,1.314,0.072998,-0.90259,18,62,151,76
19500,-0.067383,-0.26172,-0.19092,18,62,151,76
19520,0.44678,0.068359,-0.21216,18,62,151,76
19540,-1.2095,0.23096,-0.0773929999999999,18,62,151,76
19560,0.47607,0.012207,-0.29565,18,62,151,76
19580,-0.13989,-0.16138,-0.039795,18,62,151,76
19600,-0.94653,0.16065,-0.41016,18,62,151,76
19620,-2.0,0.4729,-0.37061,18,62,151,76
19640,-0.001709,0.12451,-0.075684,18,62,151,76
19660,-0.11133,0.23315,0.29419,18,62,151,76
19680,0.041504,-0.2478,0.22388,18,62,151,76
19700,-1.1152,0.31641,-0.091309,18,62,151,76
19720,0.029053,0.17651,0.34961,18,62,151,76
19740,-1.1826,0.54175,-0.17749,18,62,151,76
19760,-0.8303200000000001,0.13745,-0.31982,18,62,151,76
19780,-0.62427,0.26929,-0.13135,18,62,151,76
19800,-0.80029,-0.01123,-0.2334,18,62,151,76
19820,-2.0,0.040039,1.4973,18,62,151,76
19840,0.59326,-0.056152,-0.2522,18,62,151,76
19860,-2.0,0.40723,-0.10181,19,21,172,56
19880,-0.21704,-0.15015,0.38672,19,21,172,56
19900,-2.0,0.56445,-0.16284,19,21,172,56
19920,-2.0,0.17212,0.5957,19,21,172,56
19940,-0.55273,0.28564,-0.3501,19,21,172,56
19960,-2.0,-0.6782199999999999,0.014648,19,21,172,56
19980,-2.0,0.36987,0.5542,19,21,172,56
20000,-1.1743,0.34668,-0.038574,19,21,172,56
20020,-0.027832,-0.31079,-0.37769,19,21,172,56
20040,-0.85034,0.27905,-0.2207,19,21,172,56
20060,-1.418,0.16773,0.56323,19,21,172,56
20080,-0.6604,0.12573,-0.42163,19,21,172,56
20100,-0.56567,-0.055176,0.20093,19,21,172,56
20120,-1.9294,0.8339799999999999,-0.45142,19,21,172,56
20140,-2.0,-0.10352,-0.104,19,21,172,56
20160,-0.24585,0.096436,-0.087402,19,21,172,56
20180,-1.5117,0.66675,0.042969,19,21,172,56
20200,-1.3389,0.3208,0.015381,19,21,172,56
20220,-0.94946,0.38745,-0.019287,19,21,172,56
20240,-0.89795,0.17212,0.26563,19,21,172,56
20260,-0.98413,-0.13721,0.065674,19,21,172,56
20280,0.10889,0.18872,0.04541,19,21,172,56
20300,-0.30151,0.25635,-0.38159,19,21,172,56
20320,-0.18774,0.070801,-0.025146,19,21,172,56
20340,0.03833,0.039551,-0.050049,19,21,172,56
20360,-1.4111,0.7419399999999999,-0.28101,19,21,172,56
20380,1.231,0.14404,-0.60425,19,21,172,56
20400,-0.71973,0.16187,0.25244,19,21,172,56
20420,-0.85645,0.54907,-0.14331,19,21,172,56
20440,-1.0911,0.37402,-0.33569,19,21,172,56
20460,-1.2949,1.0566,0.084717,19,21,172,56
20480,-0.89355,0.11157,0.11841,19,21,172,56
20500,-2.0,0.77393,0.12817,19,21,172,56
20520,-1.2471,0.3938,-0.39624,19,21,172,56
20540,-0.69702,0.38428,-0.055176,19,21,172,56
20560,-1.968,0.5744600000000001,0.54028,19,21,172,56
20580,-0.6919,0.28711,-0.4502,19,21,172,56
20600,-2.0,0.090332,-0.03125,19,21,172,56
20620,-1.834,-0.1897,0.27759,19,21,172,56
20640,-1.793,0.62207,1.2715,19,21,172,56
20660,-0.097656,0.022217,0.26318,19,21,172,56
20680,-0.86645,0.23291,-0.004883,19,21,172,56
20700,-1.5952,0.52393,-0.035645,19,21,172,56
20720,-1.0337,0.28125,-0.070801,19,21,172,56
20740,-1.0925,0.26904,-0.1474599999999999,19,21,172,56
20760,-1.2427,0.46509,0.003174,20,41,186,66
20780,0.0893549999999999,-0.037109,-0.033203,20,41,186,66
20800,-0.77978,0.016113,0.12891,20,41,186,66
20820,-0.8169,0.32153,0.016113,20,41,186,66
20840,-0.80713,0.38379,-0.14697,20,41,186,66
20860,-0.22363,0.17554,0.017578,20,41,186,66
20880,-1.1797,0.2727,-0.11523,20,41,186,66
20900,-2.0,0.49634,-0.24292,20,41,186,66
20920,-0.8169,0.32153,0.016113,20,41,186,66
20940,-1.2825,0.4431100000000001,-0.1438,20,41,186,66
20960,-2.0,-0.012451,-0.060059,20,41,186,66
20980,1.7639,0.52954,-1.0349,20,41,186,66
21000,-1.6497,0.51758,-0.97168,20,41,186,66
21020,-1.1206,-0.2937,0.35352,20,41,186,66
21040,-0.80933,-0.16284,-0.31934,20,41,186,66
21060,-0.45313,-0.12793,0.36645,20,41,186,66
21080,-0.014648,-0.017334,-0.043457,20,41,186,66
21100,-2.0,0.49634,-0.24292,20,41,186,66
21120,-0.34082,0.019043,0.13355,20,41,186,66
21140,-0.7419399999999999,0.17969,-0.4082,20,41,186,66
21160,-1.731,0.78369,-0.35596,20,41,186,66
21180,-0.53833,-0.009033,0.11401,20,41,186,66
21200,-1.6404,0.5844699999999999,0.15942,20,41,186,66
21220,-1.0955,0.7641600000000001,0.043945,20,41,186,66
21240,-0.80273,0.03833,-0.20117,20,41,186,66
21260,-2.0,0.21509,0.27612,20,41,186,66
21280,-0.75781,0.28369,-0.11279,20,41,186,66
21300,-2.0,0.29468,-0.094238,20,41,186,66
21320,0.34644,0.0778809999999999,0.40283,20,41,186,66
21340,-0.94995,0.31811,-0.19971,20,41,186,66
21360,-1.1052,0.7380399999999999,-0.076172,20,41,186,66
21380,-0.47656,-0.006592,-0.071777,20,41,186,66
21400,-0.8244600000000001,0.50488,-0.39722,20,41,186,66
21420,-0.97681,0.0832519999999999,0.15527,20,41,186,66
21440,-0.71924,0.33887,0.19678,20,41,186,66
21460,-0.26367,-0.04248,-0.033203,20,41,186,66
21480,-2.0,1.7883,-0.1709,20,41,186,66
21500,0.6958,0.37695,-0.76465,20,41,186,66
21520,-0.33032,0.34058,-0.17749,20,41,186,66
21540,-0.37109,0.25659,-0.49072,20,41,186,66
21560,-2.0,0.13086,1.0554,20,41,186,66
21580,-0.94043,0.18213,-0.045166,20,41,186,66
21600,-0.68628,0.42871,-0.32568,20,41,186,66
21620,-2.0,0.41919,-0.020752,20,41,186,66
21640,-0.927,0.3147,-0.19214,20,41,186,66
21660,-2.0,0.015137,-0.090088,20,41,186,66
21680,-0.21875,-0.051758,-0.002686,20,41,186,66
21700,-0.020996,0.000488,0.15674,20,41,186,66
21720,0.23486,-0.072021,-0.19287,20,41,186,66
21740,0.51172,0.032715,-0.13355,20,41,186,66
21760,0.60693,0.043213,-0.082275,20,41,186,66
21780,-0.84131,-0.1789599999999999,-0.040771,20,41,186,66
21800,-0.31738,-0.19067,-0.35718,21,53,156,74
21820,-0.4458,-0.08252,-0.021973,21,53,156,74
21840,-0.15112,-0.19678,-0.19214,21,53,156,74
21860,-2.0,0.55273,0.35278,21,53,156,74
21880,-2.0,-0.099854,0.3606,21,53,156,74
21900,-0.7399899999999999,0.13379,0.0852049999999999,21,53,156,74
21920,-1.1287,-0.5544399999999999,-0.31299,21,53,156,74
21940,-1.449,0.68579,-0.20898,21,53,156,74
21960,-1.4009,0.36499,0.24194,21,53,156,74
21980,0.60742,-0.023193,-0.11279,21,53,156,74
22000,0.0893549999999999,-0.2727,0.22461,21,53,156,74
22020,-0.52832,-0.020508,-0.16065,21,53,156,74
22040,-2.0,0.25757,-0.33179,21,53,156,74
22060,-0.69629,0.36475,-0.3208,21,53,156,74
22080,0.81103,-0.12891,-0.46289,21,53,156,74
22100,-0.24536,0.023926,-0.021729,21,53,156,74
22120,-1.7607,0.36377,0.4829100000000001,21,53,156,74
22140,-0.78027,0.18701,-0.068848,21,53,156,74
22160,-1.6331,0.31372,0.52466,21,53,156,74
22180,-0.40674,-0.20972,0.15381,21,53,156,74
22200,-0.36597,0.11865,-0.083008,21,53,156,74
22220,-0.53589,0.062988,-0.16943,21,53,156,74
22240,-0.9104,0.1425799999999999,-0.5603,21,53,156,74
22260,-1.1702,0.62988,-0.61865,21,53,156,74
22280,-1.6599,-0.032715,0.65454,21,53,156,74
22300,-0.90185,0.44165,-0.050293,21,53,156,74
22320,0.7666,-0.070801,-0.11816,21,53,156,74
22340,-1.1001,0.6228,-0.23047,21,53,156,74
22360,-0.23511,0.0144039999999999,-0.34814,21,53,156,74
22380,-0.55737,0.11377,-0.084961,21,53,156,74
22400,0.50513,-0.02002,-0.29541,21,53,156,74
22420,0.17554,-0.15991,-0.007568,21,53,156,74
22440,0.96265,-0.11572,-0.1936,21,53,156,74
22460,-2.0,0.07959,-0.12085,21,53,156,74
22480,-2.0,0.64917,-0.05127,21,53,156,74
22500,-1.4512,0.11694,-0.064941,21,53,156,74
22520,-0.8623,0.5852,-0.18799,21,53,156,74
22540,-0.41162,-0.12671,0.14697,21,53,156,74
22560,-1.1167,0.04126,0.19067,21,53,156,74
22580,-2.0,-0.38916,0.26099,21,53,156,74
22600,-0.2727,-0.26709,0.097168,21,53,156,74
22620,-0.61352,0.22168,-0.025391,21,53,156,74
22640,-0.99292,0.17725,0.13355,21,53,156,74
22660,-2.0,1.636,-1.0979,21,53,156,74
22680,0.43628,-0.13623,-0.11377,21,53,156,74
22700,-0.17676,0.31519,-0.12524,21,53,156,74
22720,-0.5896,0.10205,-0.15723,21,53,156,74
22740,-0.3606,0.044189,-0.12402,21,53,156,74
22760,-0.039062,0.012695,-0.063721,21,53,156,74
22780,1.0994,0.24194,-0.73633,21,53,156,74
22800,-0.26563,-0.021973,0.046387,22,46,190,80
22820,-2.0,0.4187,0.43726,22,46,190,80
22840,-0.33252,0.49634,0.008057,22,46,190,80
22860,-0.48633,0.19043,-0.41357,22,46,190,80
22880,-0.44507,0.52441,-0.83862,22,46,190,80
22900,-0.76343,0.15771,-0.11035,22,46,190,80
22920,-2.0,0.080322,0.2697699999999999,22,46,190,80
22940,0.59326,-0.056152,-0.2522,22,46,190,80
22960,-0.48804,-0.26392,0.057617,22,46,190,80
22980,-0.65308,0.18848,-0.096191,22,46,190,80
23000,-1.3928,0.052002,-0.27002,22,46,190,80
23020,-0.096924,0.05957,-0.22705,22,46,190,80
23040,-0.2876,0.13037,0.18652,22,46,190,80
23060,0.0778809999999999,-0.062744,-0.3269,22,46,190,80
23080,-2.0,0.32813,-0.20239,22,46,190,80
23100,-0.59741,0.046387,-0.0634769999999999,22,46,190,80
23120,-2.0,-0.12769,-0.067383,22,46,190,80
23140,-0.41211,-0.05957,0.26489,22,46,190,80
23160,-0.57324,0.025391,-0.16699,22,46,190,80
23180,-1.189,0.64282,-0.029541,22,46,190,80
23200,0.35645,0.1416,0.7876,22,46,190,80
23220,-0.57715,-0.001953,0.15747,22,46,190,80
23240,-0.74121,0.35278,-0.52417,22,46,190,80
23260,-0.010742,-0.11621,0.38428,22,46,190,80
23280,-1.186,0.29224,-0.053955,22,46,190,80
23300,-0.3396,-0.15698,0.39673,22,46,190,80
23320,-0.93897,0.41357,0.1272,22,46,190,80
23340,-2.0,0.65894,-0.7268100000000001,22,46,190,80
23360,0.46362,-0.15088,0.034424,22,46,190,80
23380,-2.0,0.83691,0.1709,22,46,190,80
23400,-1.0276,0.36475,0.12158,22,46,190,80
23420,-2.0,-0.6411100000000001,-0.050781,22,46,190,80
23440,-0.99707,0.42773,-0.004883,22,46,190,80
23460,-2.0,0.54419,0.073486,22,46,190,80
23480,-0.91699,0.26929,-0.14526,22,46,190,80
23500,-2.0,0.050049,0.62451,22,46,190,80
23520,-0.7085,0.64648,-0.14624,22,46,190,80
23540,-2.0,1.9999,-1.0891,22,46,190,80
23560,-1.2371,0.21338,-0.61938,22,46,190,80
23580,-0.96069,0.18604,-0.24121,22,46,190,80
23600,-2.0,-0.013184,0.10254,22,46,190,80
23620,-0.5188,0.28174,-0.29126,22,46,190,80
23640,0.19556,-0.19531,0.00293,22,46,190,80
23660,-2.0,0.62842,0.22339,22,46,190,80
23680,1.0015,0.40918,-0.54077,22,46,190,80
23700,-0.61621,0.27002,-0.47485,22,46,190,80
23720,0.37744,-0.20752,-0.34961,22,46,190,80
23740,-0.42114,-0.01123,0.14868,22,46,190,80
23760,1.0012,0.35889,-1.3801,22,46,190,80
23780,-0.18774,0.070801,-0.025146,22,46,190,80
23800,-0.5744600000000001,0.36939,-0.015625,22,46,190,80
23820,-0.81323,0.35962,-0.18115,22,46,190,80
23840,-0.66309,-0.072266,-0.063965,22,46,190,80
23860,-0.50903,0.40674,-0.45483,22,46,190,80
23880,-1.4573,0.21704,0.34668,22,46,190,80
23900,-0.81006,0.32056,0.07251,22,46,190,80
23920,-1.5286,0.3645,0.031982,23,37,194,105
23940,-1.1929,0.4411600000000001,-0.3186,23,37,194,105
23960,-0.7973600000000001,0.25561,0.028564,23,37,194,105
23980,-0.85645,0.54907,-0.14331,23,37,194,105
24000,-0.8579100000000001,0.47021,-0.1438,23,37,194,105
24020,-0.4458,-0.18726,0.11743,23,37,194,105
24040,0.44751,-0.24683,-0.16626,23,37,194,105
24060,-1.7605,0.3864800000000001,0.65308,23,37,194,105
24080,0.59106,-0.093994,-0.035645,23,37,194,105
24100,-0.97363,0.45337,-0.065186,23,37,194,105
24120,-0.63989,0.2644,0.051025,23,37,194,105
24140,-0.42993,0.052979,-0.087646,23,37,194,105
24160,0.29541,-0.1521,-0.14819,23,37,194,105
24180,-1.5962,0.019775,-0.1416,23,37,194,105
24200,-1.2598,0.30933,-0.039551,23,37,194,105
24220,0.6674800000000001,-0.1652799999999999,-0.076416,23,37,194,105
24240,0.001709,-0.015625,-0.1643099999999999,23,37,194,105
24260,-1.4231,0.42676,0.49927,23,37,194,105
24280,-2.0,0.026123,0.043945,23,37,194,105
24300,-2.0,1.2085,1.1497,23,37,194,105
24320,-0.74878,0.32959,-0.007324,23,37,194,105
24340,0.19336,-0.22266,0.030762,23,37,194,105
24360,-0.7297399999999999,0.21313,0.1814,23,37,194,105
24380,-2.0,0.17969,0.38916,23,37,194,105
24400,-2.0,0.65698,0.3689,23,37,194,105
24420,-2.0,0.15283,0.61621,23,37,194,105
24440,-2.0,0.9353,0.74365,23,37,194,105
24460,-0.24097,1.2819999999999998,-0.08667,23,37,194,105
24480,-0.5231899999999999,0.41602,-0.62134,23,37,194,105
24500,1.073,0.18042,-0.4104,23,37,194,105
24520,0.18164,0.020264,0.15137,23,37,194,105
24540,-0.90234,0.51025,-0.46802,23,37,194,105
24560,-0.21582,0.12402,0.032471,23,37,194,105
24580,-1.3242,0.52344,0.35986,23,37,194,105
24600,-1.3469,0.20801,0.48535,23,37,194,105
24620,-0.5737300000000001,0.1145,-0.028076,23,37,194,105
24640,-1.3931,0.50488,-0.25049,23,37,194,105
24660,-0.9003899999999999,0.27979,0.27173,23,37,194,105
24680,-0.37012,0.23828,0.040771,23,37,194,105
24700,-2.0,1.0024,0.38013,23,37,194,105
24720,-0.92212,0.35571,-0.5188,23,37,194,105
24740,-2.0,-0.15503,0.49023,23,37,194,105
24760,-0.35815,-0.067139,-0.023926,23,37,194,105
24780,-2.0,0.5139199999999999,0.30689,23,37,194,105
24800,0.14453,-0.24585,0.026611,23,37,194,105
24820,0.042969,0.16138,-0.0893549999999999,23,37,194,105
24840,-1.3811,0.61157,-0.17969,23,37,194,105
24860,-1.7478,0.3374,0.26148,23,37,194,105
24880,-1.9028,-0.16968,-0.18872,23,37,194,105
24900,-0.39087,0.076904,-0.40161,23,37,194,105
24920,-0.68506,0.49439,-0.079834,23,37,194,105
24940,-0.14941,-0.010254,0.016113,23,37,194,105
24960,-2.0,0.5852,-0.24243,23,37,194,105
24980,0.90283,-0.20068,-0.40234,23,37,194,105
25000,-2.0,1.2883,-0.16895,23,37,194,105
25020,-1.2832,0.3833,-0.081055,23,37,194,105
25040,-0.49878,0.34351,-0.33008,24,58,169,53
25060,0.34888,-0.18384,0.060059,24,58,169,53
25080,-1.5667,0.74341,-0.23071,24,58,169,53
25100,-2.0,0.21094,0.75195,24,58,169,53
25120,0.59082,-0.11987,-0.039551,24,58,169,53
25140,-0.82373,0.43774,-0.030518,24,58,169,53
25160,-0.62671,0.22534,-0.056396,24,58,169,53
25180,-0.92676,0.22754,0.00415,24,58,169,53
25200,-2.0,-0.036865,0.15723,24,58,169,53
25220,-1.9668,0.7075199999999999,0.6521,24,58,169,53
25240,-1.5952,0.074951,0.2644,24,58,169,53
25260,-0.19287,0.010498,-0.16968,24,58,169,53
25280,0.60693,0.043213,-0.082275,24,58,169,53
25300,-1.3555,0.070312,0.35425,24,58,169,53
25320,-0.4458,-0.18726,0.11743,24,58,169,53
25340,0.022705,0.11719,-0.031982,24,58,169,53
25360,-0.43994,0.31226,0.23682,24,58,169,53
25380,-1.9702,0.74121,-0.5515100000000001,24,58,169,53
25400,0.3252,-0.21997,-0.20361,24,58,169,53
25420,-1.3145,-0.045166,-0.25659,24,58,169,53
25440,-0.70239,0.22315,-0.42578,24,58,169,53
25460,-0.8276399999999999,0.36645,-0.24878,24,58,169,53
25480,-0.57227,0.024414,0.27246,24,58,169,53
25500,-0.8928200000000001,0.3833,-0.024658,24,58,169,53
25520,-1.2251,0.37964,-0.36255,24,58,169,53
25540,-1.0757,0.66675,-0.001221,24,58,169,53
25560,-0.95313,0.2688,-0.094238,24,58,169,53
25580,-1.0627,-0.10962,-0.27759,24,58,169,53
25600,-2.0,0.50732,0.007812,24,58,169,53
25620,-2.0,0.21509,0.27612,24,58,169,53
25640,-0.93286,0.3772,-0.34497,24,58,169,53
25660,-1.2236,0.30078,-0.0625,24,58,169,53
25680,0.30469,-0.36206,-0.060791,24,58,169,53
25700,-0.0144039999999999,0.095459,-0.081787,24,58,169,53
25720,-1.1592,0.36621,-0.43945,24,58,169,53
25740,-0.4873,-0.018799,0.19092,24,58,169,53
25760,-2.0,1.1575,0.22803,24,58,169,53
25780,-0.91333,0.1084,-0.14819,24,58,169,53
25800,-1.2673,0.52905,-0.17114,24,58,169,53
25820,-1.2307,0.4729,-0.051514,24,58,169,53
25840,0.088623,-0.27148,0.35986,24,58,169,53
25860,-0.5231899999999999,0.41602,-0.62134,24,58,169,53
25880,-0.22632,0.37183,1.0066,24,58,169,53
25900,-1.7861,0.47705,-0.22339,24,58,169,53
25920,-2.0,-0.87671,0.40503,24,58,169,53
25940,-2.0,0.40723,-0.10181,24,58,169,53
25960,-2.0,0.5544399999999999,-0.6452600000000001,24,58,169,53
25980,0.41016,-0.010498,-0.18286,24,58,169,53
26000,-1.2378,0.24902,-0.057373,24,58,169,53
26020,-0.44214,0.38355,0.43823,24,58,169,53
26040,-2.0,1.3230000000000002,-0.99927,24,58,169,53
26060,-0.26392,0.36133,-0.5766600000000001,24,58,169,53
26080,-0.37109,0.25659,-0.49072,24,58,169,53
26100,-2.0,1.6047,0.6088899999999999,24,58,169,53
26120,-0.5764199999999999,0.18652,-0.069824,25,52,157,51
26140,0.30151,-0.28247,-0.20215,25,52,157,51
26160,-0.84473,0.3103,0.02832,25,52,157,51
26180,-1.1875,0.000732,0.096924,25,52,157,51
26200,-0.76904,0.35132,-0.31885,25,52,157,51
26220,-2.0,0.74731,-1.1504,25,52,157,51
26240,-0.5151399999999999,0.21509,0.088867,25,52,157,51
26260,-0.49097,0.21924,-0.302,25,52,157,51
26280,0.64258,-0.1330599999999999,-0.15698,25,52,157,51
26300,-1.0835,0.53613,-0.04834,25,52,157,51
26320,-2.0,0.13062,0.27612,25,52,157,51
26340,0.058105,0.11694,-0.14063,25,52,157,51
26360,-0.60156,0.081299,-0.19092,25,52,157,51
26380,-0.61352,0.25,-0.14331,25,52,157,51
26400,-2.0,0.042969,0.89795,25,52,157,51
26420,-0.40186,-0.001953,0.10303,25,52,157,51
26440,-0.21704,-0.15015,0.38672,25,52,157,51
26460,-0.48193,0.3374,-0.26904,25,52,157,51
26480,-1.8191,0.85059,-0.31934,25,52,157,51
26500,-0.71973,0.16187,0.25244,25,52,157,51
26520,-0.6701699999999999,0.20142,-0.053467,25,52,157,51
26540,-0.63525,0.16577,0.1919,25,52,157,51
26560,-0.7033699999999999,0.13184,-0.039062,25,52,157,51
26580,-0.23926,0.1704099999999999,-0.52344,25,52,157,51
26600,-2.0,0.7373,-0.14404,25,52,157,51
26620,-0.18018,0.099609,-0.033936,25,52,157,51
26640,-0.5415,0.12769,-0.14307,25,52,157,51
26660,-0.17407,-0.004883,0.007812,25,52,157,51
26680,0.10034,-0.071533,-0.11279,25,52,157,51
26700,-0.51148,0.10523,-0.17944,25,52,157,51
26720,-0.8811,0.0271,-0.090332,25,52,157,51
26740,-0.9751,-0.52832,0.061035,25,52,157,51
26760,-0.74219,-0.028564,-0.49707,25,52,157,51
26780,-0.8005399999999999,0.5918,-0.4663100000000001,25,52,157,51
26800,-0.40015,0.16992,-0.28394,25,52,157,51
26820,-1.5593,0.10669,0.043213,25,52,157,51
26840,-0.39941,0.29175,-0.16797,25,52,157,51
26860,0.64941,0.27808,-0.64746,25,52,157,51
26880,-0.98755,0.24438,-0.23804,25,52,157,51
26900,-0.92847,0.30542,-0.27954,25,52,157,51
26920,-1.2551,0.51148,0.37939,25,52,157,51
26940,-2.0,0.802,0.21216,25,52,157,51
26960,-0.59985,0.1853,0.001465,25,52,157,51
26980,0.42261,-0.095459,0.36914,25,52,157,51
27000,-0.46265,-0.19287,-0.18701,25,52,157,51
27020,-2.0,0.1425799999999999,0.48389,25,52,157,51
27040,-2.0,0.21973,-0.16968,25,52,157,51
27060,-0.20874,0.092041,-0.11865,25,52,157,51
27080,-0.89331,0.27393,-0.3999,25,52,157,51
27100,-0.54688,0.26782,-0.14282,25,52,157,51
27120,-0.34448,0.16992,-0.18726,25,52,157,51
27140,-0.34058,0.0856929999999999,-0.16602,25,52,157,51
27160,-2.0,0.21509,0.27612,25,52,157,51
27180,0.13477,-0.087891,-0.14526,25,52,157,51
27200,-0.5044,0.26782,-0.092773,25,52,157,51
27220,-2.0,1.2634,-0.92895,25,52,157,51
27240,-1.2256,0.68628,-0.104,26,53,177,88
27260,-0.97656,0.009521,0.0664059999999999,26,53,177,88
27280,-0.927,0.3147,-0.19214,26,53,177,88
27300,-0.9148,0.35034,-0.24731,26,53,177,88
27320,-1.1826,0.32056,-0.38306,26,53,177,88
27340,-1.5498,0.29639,0.6342800000000001,26,53,177,88
27360,-0.89331,0.27393,-0.3999,26,53,177,88
27380,-2.0,-0.10352,-0.104,26,53,177,88
27400,-0.8300799999999999,0.13232,-0.041748,26,53,177,88
27420,-0.094238,0.066162,-0.18921,26,53,177,88
27440,-0.8579100000000001,0.20776,-0.0852049999999999,26,53,177,88
27460,0.42578,-0.15088,0.13355,26,53,177,88
27480,0.47607,0.012207,-0.29565,26,53,177,88
27500,-2.0,0.4118600000000001,-0.30737,26,53,177,88
27520,-0.94141,0.32129,0.013916,26,53,177,88
27540,-2.0,0.37549,-0.1875,26,53,177,88
27560,-0.82788,0.052734,-0.25122,26,53,177,88
27580,0.29541,-0.1521,-0.14819,26,53,177,88
27600,-1.7791,0.41284,0.21118,26,53,177,88
27620,-0.7419399999999999,0.17969,-0.4082,26,53,177,88
27640,-2.0,1.4304,-1.8904,26,53,177,88
27660,-1.4469999999999998,0.055908,0.091064,26,53,177,88
27680,-0.7148399999999999,0.21973,-0.25757,26,53,177,88
27700,-1.3308,0.36816,0.48877,26,53,177,88
27720,-1.6465,0.40234,-0.34375,26,53,177,88
27740,-2.0,1.5930000000000002,-0.30518,26,53,177,88
27760,-0.6333,0.23828,0.072998,26,53,177,88
27780,-0.5231899999999999,0.41602,-0.62134,26,53,177,88
27800,-1.0322,0.479,-0.24854,26,53,177,88
27820,-0.94067,0.14038,-0.057373,26,53,177,88
27840,-0.2229,0.35425,-0.30469,26,53,177,88
27860,0.2583,-0.20727,-0.005859,26,53,177,88
27880,-0.8064,0.40918,0.072021,26,53,177,88
27900,-0.26221,0.1342799999999999,-0.26514,26,53,177,88
27920,0.93677,-0.38867,-0.20239,26,53,177,88
27940,0.34668,-0.26294,-0.094238,26,53,177,88
27960,-1.4172,0.6047399999999999,0.000244,26,53,177,88
27980,-0.7871100000000001,0.17651,-0.26318,26,53,177,88
28000,-0.5498,0.09082,-0.12817,26,53,177,88
28020,0.4331100000000001,0.066895,-0.13135,26,53,177,88
28040,0.36841,-0.16357,0.49927,26,53,177,88
28060,-0.91943,0.42285,-0.30273,26,53,177,88
28080,-2.0,1.2642,-0.25439,26,53,177,88
28100,-1.801,-0.13062,-0.063232,26,53,177,88
28120,-0.7692899999999999,0.33569,0.1342799999999999,26,53,177,88
28140,-0.89795,0.17212,0.26563,26,53,177,88
28160,0.27441,0.010742,0.23218,26,53,177,88
28180,-1.469,0.7639199999999999,-0.093506,26,53,177,88
28200,-2.0,0.25757,-0.33179,26,53,177,88
28220,-0.59741,0.046387,-0.0634769999999999,26,53,177,88
28240,0.15308,-0.059814,-0.16284,26,53,177,88
28260,-0.41577,0.11694,-0.093262,26,53,177,88
28280,-1.0959,0.4729,-0.94995,27,34,184,83
28300,-1.9683,0.28491,0.27002,27,34,184,83
28320,-1.8772,0.55688,0.31421,27,34,184,83
28340,-1.3977,0.823,-0.000244,27,34,184,83
28360,-1.5081,0.37793,-0.4204100000000001,27,34,184,83
28380,-0.92676,0.16773,-0.24023,27,34,184,83
28400,-1.2246,0.4895,-0.044922,27,34,184,83
28420,-1.6469999999999998,0.28467,0.55298,27,34,184,83
28440,-0.39941,0.29175,-0.16797,27,34,184,83
28460,-0.54419,-0.17139,0.23804,27,34,184,83
28480,-0.63721,0.26782,-0.031006,27,34,184,83
28500,-0.6469699999999999,0.40674,-0.16504,27,34,184,83
28520,-2.0,-0.27197,-0.18604,27,34,184,83
28540,-2.0,0.62842,0.22339,27,34,184,83
28560,-0.8222700000000001,0.30347,-0.52905,27,34,184,83
28580,-0.33008,-0.007324,-0.12817,27,34,184,83
28600,-0.82886,0.49121,-0.104,27,34,184,83
28620,-1.2134,0.65991,-0.15552,27,34,184,83
28640,-0.31348,0.27832,-0.23462,27,34,184,83
28660,-0.93677,0.39038,-0.57544,27,34,184,83
28680,-2.0,-0.38916,-0.46802,27,34,184,83
28700,-0.073486,0.072021,-0.1057099999999999,27,34,184,83
28720,-2.0,0.24341,-0.20459,27,34,184,83
28740,-0.26636,0.32544,-0.48804,27,34,184,83
28760,-0.7106899999999999,0.34668,-0.16113,27,34,184,83
28780,-0.64893,0.2937,0.01709,27,34,184,83
28800,-0.99463,0.23047,-0.08374,27,34,184,83
28820,-0.25903,0.1001,-0.271,27,34,184,83
28840,-1.02,-0.29541,-0.20386,27,34,184,83
28860,-1.7146,0.64844,0.18237,27,34,184,83
28880,-0.95996,0.40137,-0.2002,27,34,184,83
28900,0.29785,-0.19653,-0.10181,27,34,184,83
28920,0.29834,-0.13745,-0.4165,27,34,184,83
28940,-0.75855,-0.003662,0.2937,27,34,184,83
28960,-0.82935,0.26782,-0.1438,27,34,184,83
28980,-1.7935,0.86816,0.38159,27,34,184,83
29000,-1.8369,-0.033447,-0.094482,27,34,184,83
29020,-0.98926,-0.077637,0.36499,27,34,184,83
29040,-0.40674,-0.20972,0.15381,27,34,184,83
29060,-0.6716300000000001,0.29077,-0.16455,27,34,184,83
29080,-0.14014,-0.068359,0.34131,27,34,184,83
29100,0.7639199999999999,-0.087402,-0.3977,27,34,184,83
29120,-0.91748,0.13037,-0.38843,27,34,184,83
29140,-2.0,-0.091309,-0.095703,27,34,184,83
29160,-0.6308600000000001,0.52856,0.051758,27,34,184,83
29180,-0.51563,0.11865,-0.013184,27,34,184,83
29200,-1.4148,0.8125,-0.056152,27,34,184,83
29220,0.92749,0.32593,-0.38477,27,34,184,83
29240,0.1001,-0.10523,-0.072754,27,34,184,83
29260,-0.6079100000000001,0.18237,-0.076904,27,34,184,83
29280,-2.0,0.4729,-0.37061,27,34,184,83
29300,-2.0,1.2244,0.16773,27,34,184,83
29320,-0.74097,0.14038,-0.061035,27,34,184,83
29340,-1.3542,0.39893,0.39624,27,34,184,83
29360,-1.178,0.099609,0.30347,27,34,184,83
29380,-1.5994,0.73828,-0.28467,27,34,184,83
29400,-0.65747,0.22681,-0.24976,27,34,184,83
29420,-1.0249,0.35474,-0.28784,27,34,184,83
29440,-1.759,0.31348,-0.69702,27,34,184,83
29460,-0.84351,0.44336,-0.092041,27,34,184,83
29480,-0.90332,0.37378,0.1272,27,34,184,83
29500,-2.0,0.23852,0.65308,27,34,184,83
29520,-0.36182,-0.13599,0.006104,28,47,178,83
29540,-1.7517,0.006836,0.44189,28,47,178,83
29560,0.45483,-0.067139,0.11377,28,47,178,83
29580,-0.73242,0.4082,-0.11157,28,47,178,83
29600,-0.49854,0.56787,-0.020752,28,47,178,83
29620,-1.604,0.068115,0.21558,28,47,178,83
29640,-1.0811,0.31885,-0.10327,28,47,178,83
29660,-0.58838,0.012207,0.085938,28,47,178,83
29680,-0.11133,0.23315,0.29419,28,47,178,83
29700,-0.40527,0.096436,-0.15894,28,47,178,83
29720,0.45898,0.057617,-0.23315,28,47,178,83
29740,0.24316,-0.008545,-0.17017,28,47,178,83
29760,-0.72632,0.42627,0.080566,28,47,178,83
29780,-0.40674,-0.20972,0.15381,28,47,178,83
29800,-1.0781,0.5044,-0.15015,28,47,178,83
29820,0.13477,-0.087891,-0.14526,28,47,178,83
29840,-0.93897,0.41357,0.1272,28,47,178,83
29860,-1.2083,0.27246,-0.53589,28,47,178,83
29880,-0.8523,0.24756,-0.018555,28,47,178,83
29900,-0.38013,0.17212,0.043701,28,47,178,83
29920,0.6130399999999999,-0.2124,-0.28711,28,47,178,83
29940,-0.13745,0.093262,0.11841,28,47,178,83
29960,-0.38965,0.2522,-0.16357,28,47,178,83
29980,-0.64746,0.27808,-0.093018,28,47,178,83
30000,-0.63721,0.26782,-0.031006,28,47,178,83
30020,-1.8816,0.23364,0.29688,28,47,178,83
30040,-2.0,0.47388,0.7731899999999999,28,47,178,83
30060,-1.8933,0.37061,0.064697,28,47,178,83
30080,-0.8378899999999999,0.31641,-0.19043,28,47,178,83
30100,-0.64136,0.24438,-0.055664,28,47,178,83
30120,-1.0337,0.28125,-0.070801,28,47,178,83
30140,-0.7478,0.026367,-0.051514,28,47,178,83
30160,0.0893549999999999,-0.2727,0.22461,28,47,178,83
30180,-0.30542,-0.1919,-0.12549,28,47,178,83
30200,-1.2708,0.52905,-0.2312,28,47,178,83
30220,0.23486,-0.068848,-0.023926,28,47,178,83
30240,-0.26392,0.36133,-0.5766600000000001,28,47,178,83
30260,-1.2444,0.58203,-0.49585,28,47,178,83
30280,-0.97144,0.50244,-0.36816,28,47,178,83
30300,-0.22803,0.080322,-0.037354,28,47,178,83
30320,0.003174,-0.003418,0.078125,28,47,178,83
30340,-0.66675,0.10718,-0.023682,28,47,178,83
30360,-2.0,0.32813,-0.20239,28,47,178,83
30380,-2.0,-0.3322699999999999,0.093018,28,47,178,83
30400,-0.1560099999999999,0.088379,-0.30542,28,47,178,83
30420,0.0,-0.00293,-0.46582,28,47,178,83
30440,-0.24316,0.071045,-0.27417,28,47,178,83
30460,-1.8574,0.60034,-0.025879,28,47,178,83
30480,-2.0,-0.072021,-0.6643100000000001,29,51,152,87
30500,-0.8562,0.56226,-0.28906,29,51,152,87
30520,-0.8986799999999999,0.40234,0.060547,29,51,152,87
30540,0.24292,-0.094482,-0.029053,29,51,152,87
30560,-1.9067,1.0295,-0.74048,29,51,152,87
30580,-0.45459,-0.1377,-0.091309,29,51,152,87
30600,-0.69385,0.14893,-0.26636,29,51,152,87
30620,-1.4927,0.91138,-0.47754,29,51,152,87
30640,-1.8599,0.8928200000000001,0.080566,29,51,152,87
30660,0.0778809999999999,-0.062744,-0.3269,29,51,152,87
30680,0.53857,-0.074463,-0.10059,29,51,152,87
30700,-0.78296,0.097168,-0.32153,29,51,152,87
30720,-1.1482,0.66406,-0.20264,29,51,152,87
30740,-0.40137,0.33398,-0.095459,29,51,152,87
30760,0.59863,-0.17188,-0.25293,29,51,152,87
30780,-1.8135,-0.10913,0.35962,29,51,152,87
30800,-0.95679,-0.089111,0.026123,29,51,152,87
30820,-0.76221,0.19287,0.049072,29,51,152,87
30840,-0.8361799999999999,0.32837,-0.1687,29,51,152,87
30860,-1.1165,0.094971,-0.10474,29,51,152,87
30880,-1.927,-0.25855,0.38306,29,51,152,87
30900,-0.49585,0.1311,0.057373,29,51,152,87
30920,-2.0,0.1919,0.041748,29,51,152,87
30940,-2.0,1.5930000000000002,-0.30518,29,51,152,87
30960,-0.61816,0.13696,-0.16235,29,51,152,87
30980,-1.189,0.64282,-0.029541,29,51,152,87
31000,-0.59619,0.16626,0.02124,29,51,152,87
31020,-0.83081,0.21362,-0.11377,29,51,152,87
31040,-1.2954,0.38208,0.35254,29,51,152,87
31060,-0.56812,0.24316,-0.12085,29,51,152,87
31080,0.018799,-0.104,-0.055176,29,51,152,87
31100,-0.75488,0.32861,-0.036133,29,51,152,87
31120,-2.0,1.5981,-0.6709,29,51,152,87
31140,-0.6403800000000001,0.27734,-0.20752,29,51,152,87
31160,-0.45215,0.13501,0.19898,29,51,152,87
31180,-0.86645,0.27148,-0.25806,29,51,152,87
31200,-1.4485,0.23975,0.24536,29,51,152,87
31220,-1.3762,0.46289,-0.5227,29,51,152,87
31240,0.33643,-0.12549,-0.007324,29,51,152,87
31260,-1.7791,0.41284,0.21118,29,51,152,87
31280,-1.3347,0.92383,-0.23584,29,51,152,87
31300,-0.31006,0.008301,-0.13355,29,51,152,87
31320,-0.38794,0.22925,-0.13648,29,51,152,87
31340,-1.3381,0.81885,-0.42798,29,51,152,87
31360,-0.8064,0.40918,0.072021,29,51,152,87
31380,-0.8999,0.18164,-0.012939,29,51,152,87
31400,0.23389,0.12134,0.038818,29,51,152,87
31420,0.011475,0.063721,0.26294,29,51,152,87
31440,-1.0791,0.43481,-0.18262,29,51,152,87
31460,0.4489800000000001,0.2085,-0.20361,29,51,152,87
31480,-2.0,1.3501,-1.2026,29,51,152,87
31500,0.54297,-0.2605,-0.3010199999999999,29,51,152,87
31520,-1.2673,0.25806,-0.089844,29,51,152,87
31540,-0.36914,0.19067,-0.078857,29,51,152,87
31560,-0.039551,-0.24609,0.20752,30,42,195,66
31580,-2.0,-0.071777,-0.62647,30,42,195,66
31600,0.49829,-0.62207,0.34863,30,42,195,66
31620,-2.0,0.5158699999999999,1.5432,30,42,195,66
31640,-0.05249,-0.18872,0.38574,30,42,195,66
31660,-0.97974,0.30933,-0.17651,30,42,195,66
31680,-1.0625,0.4104,-0.086426,30,42,195,66
31700,-1.8245,-0.56006,-0.55688,30,42,195,66
31720,-0.40015,0.16992,-0.28394,30,42,195,66
31740,-1.0352,0.4497100000000001,-0.31177,30,42,195,66
31760,-1.1572,0.32373,0.021973,30,42,195,66
31780,-1.1694,0.15747,-0.19214,30,42,195,66
31800,-0.30957,0.13623,-0.068848,30,42,195,66
31820,-0.44605,0.16846,-0.56567,30,42,195,66
31840,-1.1135,0.40723,-0.072021,30,42,195,66
31860,-2.0,0.42871,0.20386,30,42,195,66
31880,0.66138,-0.11475,-0.15698,30,42,195,66
31900,-2.0,-0.5769,1.9999,30,42,195,66
31920,-2.0,0.5158699999999999,1.5432,30,42,195,66
31940,-0.92676,0.4165,0.008545,30,42,195,66
31960,-0.7627,0.30225,-0.34717,30,42,195,66
31980,-2.0,0.8691399999999999,-0.35254,30,42,195,66
32000,-1.6375,0.42017,-0.19067,30,42,195,66
32020,0.59863,-0.17188,-0.25293,30,42,195,66
32040,-0.30542,-0.1919,-0.12549,30,42,195,66
32060,1.0298,0.19556,-0.43408,30,42,195,66
32080,-0.77515,0.14575,-0.26001,30,42,195,66
32100,-0.31372,-0.053955,0.1626,30,42,195,66
32120,-1.3308,0.36816,0.48877,30,42,195,66
32140,-1.1692,0.96753,0.55078,30,42,195,66
32160,-1.1582,0.42554,-0.2561,30,42,195,66
32180,-1.5696,0.53613,-0.52978,30,42,195,66
32200,-2.0,1.9999,-1.2542,30,42,195,66
32220,-2.0,-0.80737,-0.014893,30,42,195,66
32240,-0.81152,0.60107,-0.13208,30,42,195,66
32260,-0.26416,-0.16382,0.21313,30,42,195,66
32280,-2.0,-0.19898,-0.42871,30,42,195,66
32300,-2.0,0.052734,0.58057,30,42,195,66
32320,-0.71753,0.21924,-0.50952,30,42,195,66
32340,-0.43994,-0.21875,-0.47876,30,42,195,66
32360,0.23486,-0.072021,-0.19287,30,42,195,66
32380,-1.3728,0.5219699999999999,-0.4165,30,42,195,66
32400,0.4956100000000001,-0.095703,-0.10376,30,42,195,66
32420,0.24951,-0.12451,0.042725,30,42,195,66
32440,0.7605,0.001465,-0.034912,30,42,195,66
32460,-1.2747,0.16113,-0.72827,30,42,195,66
32480,0.7832,-0.20483,-0.2561,30,42,195,66
32500,-1.0786,0.1560099999999999,0.12109,30,42,195,66
32520,-0.74048,0.29419,-0.51294,30,42,195,66
32540,-1.7725,0.79785,0.23901,30,42,195,66
32560,-0.97559,0.18604,0.15625,30,42,195,66
32580,-0.45459,-0.1377,-0.091309,30,42,195,66
32600,-2.0,0.27856,-0.031494,30,42,195,66
32620,-0.62671,0.10083,-0.33008,31,64,195,94
32640,-2.0,0.095703,-0.90283,31,64,195,94
32660,-2.0,0.65308,0.005127,31,64,195,94
32680,-1.1853,0.23682,-0.46948,31,64,195,94
32700,-0.96167,0.20923,-0.24121,31,64,195,94
32720,-1.1565,0.33325,0.005859,31,64,195,94
32740,-0.2373,0.059326,-0.013184,31,64,195,94
32760,-0.90747,0.15625,-0.080078,31,64,195,94
32780,-1.1467,0.19214,-0.22095,31,64,195,94
32800,-2.0,1.6655,0.8706,31,64,195,94
32820,-0.68921,0.42773,-0.047607,31,64,195,94
32840,-2.0,0.4624,-0.63184,31,64,195,94
32860,-1.8794,0.87598,1.1631,31,64,195,94
32880,0.14526,0.08252,-0.12451,31,64,195,94
32900,-0.54688,0.37134,-0.63672,31,64,195,94
32920,-0.86597,0.46118,0.061523,31,64,195,94
32940,0.802,-0.13599,-0.4148,31,64,195,94
32960,0.34766,-0.053223,-0.38867,31,64,195,94
32980,-0.90723,0.5332,-0.18384,31,64,195,94
33000,-0.76636,0.32349,-0.76782,31,64,195,94
33020,-0.58032,0.21558,-0.12329,31,64,195,94
33040,-2.0,1.7976,-0.2439,31,64,195,94
33060,0.13379,-0.015137,-0.1059599999999999,31,64,195,94
33080,-0.66235,0.30884,-0.015869,31,64,195,94
33100,-1.0247,0.082764,0.13208,31,64,195,94
33120,-0.47412,0.18604,0.0676269999999999,31,64,195,94
33140,-2.0,0.4624,-0.63184,31,64,195,94
33160,-0.99731,0.31738,-0.11597,31,64,195,94
33180,-0.4458,-0.08252,-0.021973,31,64,195,94
33200,-1.8875,0.43091,0.27832,31,64,195,94
33220,-0.44605,0.3877,-0.19434,31,64,195,94
33240,-1.2388,0.6076699999999999,-0.29321,31,64,195,94
33260,-0.8335,-0.1831,0.17773,31,64,195,94
33280,-2.0,0.68018,-0.59009,31,64,195,94
33300,-0.66284,0.27417,-0.12012,31,64,195,94
33320,-0.05542,0.077637,0.018311,31,64,195,94
33340,0.02417,-0.093262,-0.057861,31,64,195,94
33360,-0.7124,0.084229,-0.29956,31,64,195,94
33380,-0.42114,-0.01123,0.14868,31,64,195,94
33400,-0.48169,0.17188,-0.20313,31,64,195,94
33420,-0.39355,0.2168,-0.1377,31,64,195,94
33440,-0.41211,-0.05957,0.26489,31,64,195,94
33460,-1.3196,0.54443,-0.59912,31,64,195,94
33480,-2.0,0.8476600000000001,-0.08252,31,64,195,94
33500,-0.27808,0.28955,-0.12476,31,64,195,94
33520,-2.0,0.21924,0.63867,31,64,195,94
33540,-0.61255,0.18457,-0.40283,31,64,195,94
33560,-0.024414,-0.030029,0.072266,31,64,195,94
33580,-2.0,-0.063965,0.01123,31,64,195,94
33600,-0.57227,0.36377,-0.1789599999999999,31,64,195,94
33620,-0.74658,0.11011,-0.22217,31,64,195,94
33640,-0.20557,0.032715,-0.092285,31,64,195,94
33660,-0.75366,0.28418,0.14331,31,64,195,94
33680,-1.0247,0.082764,0.13208,31,64,195,94
33700,-2.0,0.88184,1.1909,31,64,195,94
33720,-1.0911,0.37402,-0.33569,31,64,195,94
33740,0.62647,-0.10962,-0.0664059999999999,31,64,195,94
33760,-1.4832,0.04248,-0.051025,32,35,195,64
33780,-0.43189,-0.1394,0.177,32,35,195,64
33800,-2.0,0.9895,-0.074951,32,35,195,64
33820,-0.41553,0.07251,-0.23169,32,35,195,64
33840,-1.0803,0.48218,-0.26416,32,35,195,64
33860,-2.0,0.001709,-0.03418,32,35,195,64
33880,-2.0,0.6189,0.58105,32,35,195,64
33900,-2.0,-0.036865,0.15723,32,35,195,64
33920,1.0857,-0.049561,-0.49878,32,35,195,64
33940,-0.5044,0.26782,-0.092773,32,35,195,64
33960,-1.2366,0.33814,0.084717,32,35,195,64
33980,-0.75073,0.12964,-0.020752,32,35,195,64
34000,-2.0,0.18799,0.41089,32,35,195,64
34020,-0.63525,0.16577,0.1919,32,35,195,64
34040,-1.48,0.27466,-0.34619,32,35,195,64
34060,-0.97534,0.23413,-0.39233,32,35,195,64
34080,-0.78149,0.16357,0.038818,32,35,195,64
34100,-0.92993,0.31787,0.3418,32,35,195,64
34120,-0.99902,0.068359,-0.004639,32,35,195,64
34140,-2.0,0.22485,1.1775,32,35,195,64
34160,-1.1318,0.09375,0.17676,32,35,195,64
34180,-1.2932,0.21655,-0.4248,32,35,195,64
34200,-1.7336,0.19116,0.36939,32,35,195,64
34220,-0.8005399999999999,0.5918,-0.4663100000000001,32,35,195,64
34240,-0.95996,0.20166,-0.24316,32,35,195,64
34260,-2.0,0.36987,0.5542,32,35,195,64
34280,-0.91138,0.35962,-0.4743600000000001,32,35,195,64
34300,-0.99194,0.25928,-0.1272,32,35,195,64
34320,-0.2727,-0.26709,0.097168,32,35,195,64
34340,-1.3394,0.40552,0.37915,32,35,195,64
34360,-0.54907,0.46167,-0.96118,32,35,195,64
34380,-0.91357,-0.090576,-0.13525,32,35,195,64
34400,-0.78394,0.22485,-0.48682,32,35,195,64
34420,-2.0,0.042969,0.89795,32,35,195,64
34440,-2.0,0.64258,0.26025,32,35,195,64
34460,-0.90112,0.48999,-0.24146,32,35,195,64
34480,-1.1294,0.14477,0.085449,32,35,195,64
34500,-2.0,-2.0,-0.86816,32,35,195,64
34520,-1.6396,0.23413,-0.08374,32,35,195,64
34540,-1.0239,0.24634,-0.7297399999999999,32,35,195,64
34560,-0.8537600000000001,-0.2727,-0.35913,32,35,195,64
34580,-0.74658,0.11011,-0.22217,32,35,195,64
34600,-0.72363,0.009033,-0.007812,32,35,195,64
34620,-1.1667,0.25561,-0.4729,32,35,195,64
34640,-0.40576,-0.14307,-0.1333,32,35,195,64
34660,-0.26221,-0.073486,-0.33472,32,35,195,64
34680,-0.64136,0.24438,-0.055664,32,35,195,64
34700,-1.3145,-0.045166,-0.25659,32,35,195,64
34720,-0.99292,0.17725,0.13355,32,35,195,64
34740,-1.186,0.29224,-0.053955,32,35,195,64
34760,-0.40356,0.13965,-0.12793,32,35,195,64
34780,-0.69434,0.30347,-0.11792,32,35,195,64
34800,-2.0,0.25928,0.17676,32,35,195,64
34820,0.34473,0.10425,0.025391,32,35,195,64
34840,-0.63403,0.42895,0.073486,32,35,195,64
34860,-1.0662,0.3374,-0.16089,32,35,195,64
34880,-2.0,0.7326699999999999,1.1567,32,35,195,64
34900,-0.41821,-0.021729,0.17212,32,35,195,64
34920,-1.0583,0.40942,-0.27954,32,35,195,64
34940,-0.41577,0.11694,-0.093262,32,35,195,64
34960,-0.21729,0.068848,0.022461,33,65,154,102
34980,0.10034,-0.071533,-0.11279,33,65,154,102
35000,-2.0,1.7539,-0.77173,33,65,154,102
35020,-2.0,0.052734,0.58057,33,65,154,102
35040,-1.4128,0.22925,0.10889,33,65,154,102
35060,-0.7229,-0.104,-0.93848,33,65,154,102
35080,-1.2939,0.39966,-0.33594,33,65,154,102
35100,-1.2554,0.58716,-0.27612,33,65,154,102
35120,0.68921,0.25708,-0.20435,33,65,154,102
35140,-0.71655,0.18677,-0.27734,33,65,154,102
35160,-0.31714,0.23071,-0.29688,33,65,154,102
35180,-2.0,0.1425799999999999,-0.43481,33,65,154,102
35200,-1.4231,0.39087,-0.076416,33,65,154,102
35220,-0.78027,0.18701,-0.068848,33,65,154,102
35240,-1.2427,0.46509,0.003174,33,65,154,102
35260,0.24316,-0.008545,-0.17017,33,65,154,102
35280,0.041504,-0.2478,0.22388,33,65,154,102
35300,-2.0,0.9353,0.74365,33,65,154,102
35320,-1.7324,0.25513,-0.048828,33,65,154,102
35340,-1.2551,0.51148,0.37939,33,65,154,102
35360,-1.5625,0.35669,0.48047,33,65,154,102
35380,-1.1643,0.37695,-0.082275,33,65,154,102
35400,-2.0,-0.30762,-0.23315,33,65,154,102
35420,-0.52832,-0.056396,0.50464,33,65,154,102
35440,-0.68506,0.49439,-0.079834,33,65,154,102
35460,-1.1501,0.7075199999999999,-0.17602,33,65,154,102
35480,-0.70825,0.26245,0.043457,33,65,154,102
35500,-0.6191399999999999,0.16602,-0.3313,33,65,154,102
35520,0.052246,0.066162,-0.07959,33,65,154,102
35540,-2.0,-0.082764,0.23779,33,65,154,102
35560,-2.0,0.50732,0.007812,33,65,154,102
35580,-1.2388,0.6076699999999999,-0.29321,33,65,154,102
35600,-0.5332,0.19336,-0.078369,33,65,154,102
35620,-1.0933,0.50098,0.04248,33,65,154,102
35640,-2.0,1.2222,-0.4248,33,65,154,102
35660,-1.1658,0.1831,-0.6416,33,65,154,102
35680,-0.65308,0.18848,-0.096191,33,65,154,102
35700,-2.0,-0.53394,-0.33862,33,65,154,102
35720,0.92749,0.32593,-0.38477,33,65,154,102
35740,-0.83862,0.38623,-0.33276,33,65,154,102
35760,-0.28784,0.095703,-0.44043,33,65,154,102
35780,-1.2673,0.25806,-0.089844,33,65,154,102
35800,-0.058838,-0.001953,0.27905,33,65,154,102
35820,-0.4375,0.14087,-0.14917,33,65,154,102
35840,0.064209,-0.016602,-0.15479,33,65,154,102
35860,0.16943,-0.003662,-0.091797,33,65,154,102
35880,-0.72754,0.19946,-0.088135,33,65,154,102
35900,-0.56201,0.058594,-0.29175,33,65,154,102
35920,-1.2603,0.49829,-0.15991,33,65,154,102
35940,-1.147,0.17798,0.44922,33,65,154,102
35960,-0.69702,0.51367,0.008789,33,65,154,102
35980,-1.2939,-0.4021,0.005127,33,65,154,102
36000,-0.22437,0.19458,-0.21973,33,65,154,102
36020,-0.94824,0.1477099999999999,-0.14844,34,39,169,94
36040,-1.7719999999999998,0.30078,0.35938,34,39,169,94
36060,-1.8167,0.30298,-0.20605,34,39,169,94
36080,-0.84009,0.48804,-0.27515,34,39,169,94
36100,-1.3601,0.62842,0.177,34,39,169,94
36120,-0.47754,0.34521,-0.45117,34,39,169,94
36140,-1.2158,0.96924,-0.11133,34,39,169,94
36160,-0.6228,0.078613,-0.006592,34,39,169,94
36180,-1.2505,0.21313,0.038574,34,39,169,94
36200,-1.0273,0.74951,-0.24487,34,39,169,94
36220,-1.0393,0.28491,-0.12817,34,39,169,94
36240,-2.0,-0.036865,0.15723,34,39,169,94
36260,0.15112,-0.16626,0.084961,34,39,169,94
36280,0.53735,-0.26221,0.24219,34,39,169,94
36300,-2.0,1.1018,0.62305,34,39,169,94
36320,-1.2246,0.4895,-0.044922,34,39,169,94
36340,-2.0,0.27856,-0.031494,34,39,169,94
36360,-1.3647,0.4497100000000001,-0.38037,34,39,169,94
36380,-0.78345,0.32471,0.02417,34,39,169,94
36400,-2.0,1.9999,-1.5881,34,39,169,94
36420,0.67261,-0.17725,-0.29932,34,39,169,94
36440,-0.6919,0.28711,-0.4502,34,39,169,94
36460,0.32593,-0.066895,-0.1958,34,39,169,94
36480,-0.049561,0.22461,-0.33398,34,39,169,94
36500,-0.26221,-0.073486,-0.33472,34,39,169,94
36520,0.59863,-0.17188,-0.25293,34,39,169,94
36540,-0.28809,0.11353,-0.16773,34,39,169,94
36560,-0.48364,-0.069336,0.32813,34,39,169,94
36580,-0.5783699999999999,-0.08374,0.053955,34,39,169,94
36600,-2.0,0.37329,1.3425,34,39,169,94
36620,0.47778,-0.15991,-0.25977,34,39,169,94
36640,-1.3843,0.31592,-0.23511,34,39,169,94
36660,-0.12402,0.029785,-0.035156,34,39,169,94
36680,-0.92847,0.30542,-0.27954,34,39,169,94
36700,-1.2686,0.41797,-0.20996,34,39,169,94
36720,-1.9028,0.38501,0.47998,34,39,169,94
36740,-1.2969,0.18579,0.15479,34,39,169,94
36760,-1.8848,0.43408,0.018555,34,39,169,94
36780,-2.0,1.855,-1.1355,34,39,169,94
36800,-0.31665,-0.09375,-0.031982,34,39,169,94
36820,-0.6469699999999999,0.21899,-0.13501,34,39,169,94
36840,-0.7439,0.018799,-0.42212,34,39,169,94
36860,-0.71899,0.15137,-0.24805,34,39,169,94
36880,-0.46265,-0.19287,-0.18701,34,39,169,94
36900,-0.6716300000000001,0.29077,-0.16455,34,39,169,94
36920,0.24414,-0.23047,-0.28711,34,39,169,94
36940,0.2627,0.005127,0.022705,34,39,169,94
36960,-1.7429,0.33472,-0.1294,34,39,169,94
36980,-0.78223,0.17139,0.11621,34,39,169,94
37000,-2.0,0.080078,0.24487,34,39,169,94
37020,-0.52612,-0.28735,-0.043213,34,39,169,94
37040,-0.59863,0.025146,-0.24292,35,35,157,64
37060,-1.8933,0.37061,0.064697,35,35,157,64
37080,-0.36133,0.21851,-0.076416,35,35,157,64
37100,-1.6514,0.95215,-1.3186,35,35,157,64
37120,-0.45117,0.12402,-0.28662,35,35,157,64
37140,-0.7709999999999999,0.1340299999999999,-0.37769,35,35,157,64
37160,-0.9646,0.32764,-0.24365,35,35,157,64
37180,-1.4705,0.48877,0.075684,35,35,157,64
37200,-1.0811,-0.20068,-0.8303200000000001,35,35,157,64
37220,-0.25903,0.1001,-0.271,35,35,157,64
37240,-0.49585,0.1311,0.057373,35,35,157,64
37260,-0.044189,0.019531,-0.21582,35,35,157,64
37280,-1.2251,0.37964,-0.36255,35,35,157,64
37300,-0.21777,0.059082,-0.18555,35,35,157,64
37320,-2.0,0.25928,0.17676,35,35,157,64
37340,-0.8222700000000001,0.30347,-0.52905,35,35,157,64
37360,-2.0,0.15918,0.13599,35,35,157,64
37380,-0.89917,0.48511,-0.014893,35,35,157,64
37400,-0.53882,0.34521,-0.097168,35,35,157,64
37420,-0.92749,0.28394,0.025879,35,35,157,64
37440,-1.2007,0.50684,0.3877,35,35,157,64
37460,-1.2788,0.15308,0.040283,35,35,157,64
37480,-0.18018,-0.019287,-0.015381,35,35,157,64
37500,0.026611,0.2207,-0.32178,35,35,157,64
37520,-1.6375,0.42017,-0.19067,35,35,157,64
37540,-1.3562,0.51025,-0.2456,35,35,157,64
37560,-2.0,-0.38916,-0.46802,35,35,157,64
37580,-0.78735,0.18091,-0.10693,35,35,157,64
37600,-0.46265,-0.19287,-0.18701,35,35,157,64
37620,-0.47559,0.10425,-0.18359,35,35,157,64
37640,-1.0527,0.27734,-0.19287,35,35,157,64
37660,-0.25098,-0.000488,-0.32764,35,35,157,64
37680,-1.8372,0.30005,0.56201,35,35,157,64
37700,-1.6587,0.28296,0.25879,35,35,157,64
37720,0.55591,-0.12573,-0.15454,35,35,157,64
37740,-1.9905,0.37378,0.58887,35,35,157,64
37760,-0.32275,0.05957,-0.26758,35,35,157,64
37780,-0.094238,0.066162,-0.18921,35,35,157,64
37800,-0.0676269999999999,-0.050537,-0.2605,35,35,157,64
37820,-0.15161,-0.014648,0.35278,35,35,157,64
37840,-2.0,-0.28955,-0.34326,35,35,157,64
37860,-1.9465,1.2361,0.40356,35,35,157,64
37880,-0.44238,0.10498,-0.0737299999999999,35,35,157,64
37900,-0.68945,0.13232,-0.1919,35,35,157,64
37920,-0.33667,0.03418,0.27515,35,35,157,64
37940,-0.7653800000000001,0.44922,-0.024658,35,35,157,64
37960,-1.5684,0.1377,0.15649,35,35,157,64
37980,-2.0,0.6018100000000001,0.28882,35,35,157,64
38000,0.4956100000000001,-0.095703,-0.10376,35,35,157,64
38020,-1.2681,0.2373,-0.19141,35,35,157,64
38040,-1.2849,0.33716,0.26733,35,35,157,64
38060,-1.1084,0.40894,0.099609,36,47,179,71
38080,0.78687,0.15967,-0.36939,36,47,179,71
38100,-0.40112,-0.04541,0.30933,36,47,179,71
38120,-1.0825,0.39551,-0.12207,36,47,179,71
38140,1.022,-0.099854,-0.7307100000000001,36,47,179,71
38160,-0.34302,0.1023,-0.013184,36,47,179,71
38180,-1.1887,0.23901,0.23267,36,47,179,71
38200,-0.34448,0.30737,-0.40186,36,47,179,71
38220,-0.66235,0.29785,-0.19653,36,47,179,71
38240,-0.74878,0.32959,-0.007324,36,47,179,71
38260,1.2935,0.21948,-1.4016,36,47,179,71
38280,-0.66089,0.41089,0.079834,36,47,179,71
38300,-0.41553,0.07251,-0.23169,36,47,179,71
38320,-0.33618,0.074219,0.1084,36,47,179,71
38340,-1.2693,0.604,-0.47095,36,47,179,71
38360,-1.1138,-0.25732,-0.23755,36,47,179,71
38380,-1.0227,0.15894,-0.25561,36,47,179,71
38400,-1.2114,0.75488,-0.22681,36,47,179,71
38420,-1.9702,0.74121,-0.5515100000000001,36,47,179,71
38440,-0.8779299999999999,0.32788,-0.10523,36,47,179,71
38460,-1.7478,0.3374,0.26148,36,47,179,71
38480,-1.4546,-0.48389,-0.35742,36,47,179,71
38500,-0.4773,0.29297,-0.21069,36,47,179,71
38520,0.29834,-0.13745,-0.4165,36,47,179,71
38540,-0.76367,0.24878,-0.10083,36,47,179,71
38560,-2.0,0.7373,-0.14404,36,47,179,71
38580,-1.2051,0.6721199999999999,-0.098633,36,47,179,71
38600,-0.45264,0.066162,-0.08374,36,47,179,71
38620,-0.14941,-0.010254,0.016113,36,47,179,71
38640,-2.0,0.18799,0.41089,36,47,179,71
38660,-1.866,0.36255,0.1648,36,47,179,71
38680,-0.70239,0.39697,-0.053955,36,47,179,71
38700,-1.1567,0.48193,-0.2832,36,47,179,71
38720,0.1521,0.076904,-0.10376,36,47,179,71
38740,-1.1411,0.20239,0.01416,36,47,179,71
38760,-1.1956,0.27759,0.093506,36,47,179,71
38780,-0.63989,0.2644,0.051025,36,47,179,71
38800,-0.44482,0.25146,-0.47192,36,47,179,71
38820,-0.8959999999999999,0.40674,-0.40186,36,47,179,71
38840,-1.0515,0.28198,-0.23852,36,47,179,71
38860,-2.0,0.11011,0.24463,36,47,179,71
38880,-0.68066,0.075195,-0.44531,36,47,179,71
38900,-0.7661100000000001,0.45068,-0.044189,36,47,179,71
38920,-0.066162,-0.16626,-0.18237,36,47,179,71
38940,-2.0,0.07959,-0.12085,36,47,179,71
38960,-0.45044,0.15283,-0.10938,36,47,179,71
38980,0.24097,-0.19605,-0.1853,36,47,179,71
39000,-0.91577,-0.026367,-0.017822,36,47,179,71
39020,-0.4856,0.24731,-0.45459,36,47,179,71
39040,-1.3818,0.76904,-0.2207,36,47,179,71
39060,-1.8848,0.43408,0.018555,36,47,179,71
39080,-0.91748,0.33496,0.003662,36,47,179,71
39100,-2.0,0.044189,0.42822,37,30,154,96
39120,-1.4172,0.6047399999999999,0.000244,37,30,154,96
39140,0.54297,-0.2605,-0.3010199999999999,37,30,154,96
39160,-1.8477,-0.78857,0.20068,37,30,154,96
39180,0.20605,0.1084,-0.19312,37,30,154,96
39200,-0.25415,0.2771,-0.14551,37,30,154,96
39220,-1.0112,0.49194,-0.026123,37,30,154,96
39240,-1.4138,0.51343,-0.40918,37,30,154,96
39260,-2.0,1.5930000000000002,-0.30518,37,30,154,96
39280,-0.6503899999999999,0.07251,-0.16357,37,30,154,96
39300,-2.0,1.9999,-0.35767,37,30,154,96
39320,0.38013,0.033936,-0.061523,37,30,154,96
39340,-1.8611,0.39429,-0.29273,37,30,154,96
39360,-1.0803,0.48218,-0.26416,37,30,154,96
39380,-1.0188,0.37866,-0.3689,37,30,154,96
39400,-2.0,0.24341,-0.20459,37,30,154,96
39420,-1.0361,0.58813,-0.81665,37,30,154,96
39440,-2.0,-0.1416,-0.1543,37,30,154,96
39460,1.9999,0.36572,-1.6582,37,30,154,96
39480,-0.99902,0.61621,-0.55786,37,30,154,96
39500,-1.1091,0.30908,0.12793,37,30,154,96
39520,-1.1411,0.20239,0.01416,37,30,154,96
39540,-1.0925,0.26904,-0.1474599999999999,37,30,154,96
39560,-0.61328,0.2478,-0.1582,37,30,154,96
39580,-0.021973,-0.2832,-0.085449,37,30,154,96
39600,-2.0,1.2341,-0.40503,37,30,154,96
39620,-0.56543,0.36914,0.13843,37,30,154,96
39640,-0.5451699999999999,0.4043,-0.32031,37,30,154,96
39660,-0.19067,-0.012695,0.15405,37,30,154,96
39680,-0.65503,0.19458,-0.12402,37,30,154,96
39700,-1.2573,0.40161,-0.016357,37,30,154,96
39720,-1.8054,0.4104,-0.065674,37,30,154,96
39740,-0.35693,0.071289,-0.32398,37,30,154,96
39760,0.104,-0.036621,-0.10669,37,30,154,96
39780,-1.063,0.23584,-0.23706,37,30,154,96
39800,-0.30347,0.21289,-0.22315,37,30,154,96
39820,-0.32324,0.081787,-0.056396,37,30,154,96
39840,-2.0,-0.075195,0.28223,37,30,154,96
39860,-0.94873,0.32642,0.29297,37,30,154,96
39880,-1.1797,0.2727,-0.11523,37,30,154,96
39900,-1.2781,0.001709,0.092773,37,30,154,96
39920,-0.33203,-0.043701,0.52856,37,30,154,96
39940,-0.26221,0.1342799999999999,-0.26514,37,30,154,96
39960,-0.89331,0.27393,-0.3999,37,30,154,96
39980,-1.2388,0.6076699999999999,-0.29321,37,30,154,96
40000,-0.7653800000000001,0.44922,-0.024658,37,30,154,96
40020,0.1394,-0.37451,0.1853,37,30,154,96
40040,-0.8295899999999999,0.34936,0.18384,38,42,163,56
40060,0.20605,0.1084,-0.19312,38,42,163,56
40080,-1.3386,0.59302,-0.01123,38,42,163,56
40100,-2.0,0.58496,0.83911,38,42,163,56
40120,-1.3335,0.01709,0.7019,38,42,163,56
40140,-0.43701,0.058838,0.037842,38,42,163,56
40160,-0.26392,0.36133,-0.5766600000000001,38,42,163,56
40180,0.8335,-0.17139,-0.2627,38,42,163,56
40200,-1.1482,0.66406,-0.20264,38,42,163,56
40220,0.22632,-0.22949,0.036377,38,42,163,56
40240,-0.95996,0.20166,-0.24316,38,42,163,56
40260,-0.75781,0.4773,-0.060791,38,42,163,56
40280,-0.66284,0.14136,-0.20483,38,42,163,56
40300,-1.4548,0.36963,-0.056152,38,42,163,56
40320,0.1643099999999999,-0.057373,0.20972,38,42,163,56
40340,-2.0,0.28125,-0.22461,38,42,163,56
40360,-0.98315,0.22925,-0.40552,38,42,163,56
40380,-0.53833,-0.009033,0.11401,38,42,163,56
40400,-1.3364,0.068359,0.45874,38,42,163,56
40420,-2.0,0.090088,0.4956100000000001,38,42,163,56
40440,-0.19287,0.11182,-0.18604,38,42,163,56
40460,-1.803,-0.070801,-0.62647,38,42,163,56
40480,-1.3499,0.17236,0.23218,38,42,163,56
40500,-1.5586,1.1692,-0.5837399999999999,38,42,163,56
40520,-0.8405799999999999,0.30371,-0.31323,38,42,163,56
40540,-0.56348,0.33765,-0.1543,38,42,163,56
40560,-0.4643600000000001,-0.005859,-0.031738,38,42,163,56
40580,0.6001,0.041992,-0.15771,38,42,163,56
40600,-0.57593,0.4209,0.039062,38,42,163,56
40620,-1.4797,0.66065,0.083008,38,42,163,56
40640,-1.635,0.49609,-0.078613,38,42,163,56
40660,-0.5127,0.23267,-0.065674,38,42,163,56
40680,-1.1528,0.448,-0.11572,38,42,163,56
40700,-0.084473,0.1665,0.33936,38,42,163,56
40720,-0.18921,0.14404,-0.38867,38,42,163,56
40740,-0.62158,0.1640599999999999,0.12476,38,42,163,56
40760,-0.50562,0.27564,-0.18604,38,42,163,56
40780,-0.7439,0.018799,-0.42212,38,42,163,56
40800,-0.35791,0.17822,-0.2168,38,42,163,56
40820,-0.93848,0.18091,-0.10425,38,42,163,56
40840,-1.8423,0.69922,0.19873,38,42,163,56
40860,0.41016,0.37671,-0.26807,38,42,163,56
40880,-0.42627,0.16065,-0.0773929999999999,38,42,163,56
40900,0.96802,0.19653,-0.49805,38,42,163,56
40920,-2.0,0.38892,0.1062,38,42,163,56
40940,0.2937,-0.032227,-0.31274,38,42,163,56
40960,-0.95605,0.18628,-0.5188,38,42,163,56
40980,-1.1519,0.086182,-0.064453,38,42,163,56
41000,0.35645,0.1416,0.7876,38,42,163,56
41020,-2.0,0.62671,0.3418,38,42,163,56
41040,0.10205,0.048828,-0.010742,38,42,163,56
41060,0.7102,0.40381,-0.48804,38,42,163,56
41080,-1.8564,-0.049561,0.30249,38,42,163,56
41100,-0.37964,0.1814,-0.087158,39,62,178,59
41120,-0.47046,-0.002686,0.31177,39,62,178,59
41140,-1.127,0.64722,-0.35913,39,62,178,59
41160,-1.5952,0.074951,0.2644,39,62,178,59
41180,-0.52612,-0.28735,-0.043213,39,62,178,59
41200,-2.0,0.17114,0.061523,39,62,178,59
41220,-0.28223,0.21924,-0.39673,39,62,178,59
41240,0.018799,-0.104,-0.055176,39,62,178,59
41260,-0.78149,0.16357,0.038818,39,62,178,59
41280,-1.0645,0.16943,-0.16992,39,62,178,59
41300,-1.5127,0.29492,0.76563,39,62,178,59
41320,-0.11328,0.30859,-0.2688,39,62,178,59
41340,-0.39844,0.11597,-0.090088,39,62,178,59
41360,-2.0,0.64258,0.26025,39,62,178,59
41380,-1.3142,0.5092800000000001,0.38867,39,62,178,59
41400,-0.44434,-0.00415,0.049561,39,62,178,59
41420,-1.8423,0.69922,0.19873,39,62,178,59
41440,0.16065,0.18604,0.09082,39,62,178,59
41460,-0.29321,0.08667,-0.029785,39,62,178,59
41480,-0.9773,0.37866,-0.33472,39,62,178,59
41500,-2.0,-0.096191,0.18091,39,62,178,59
41520,-2.0,0.59448,0.29102,39,62,178,59
41540,-0.48657,0.14551,-0.43848,39,62,178,59
41560,-1.0762,0.6438,-0.42895,39,62,178,59
41580,-1.2261,0.6130399999999999,0.057617,39,62,178,59
41600,-0.34741,0.23438,-0.6330600000000001,39,62,178,59
41620,0.7360800000000001,0.54297,-0.79297,39,62,178,59
41640,-0.61328,0.2478,-0.1582,39,62,178,59
41660,-1.3096,0.22632,-0.49634,39,62,178,59
41680,-0.30151,0.25635,-0.38159,39,62,178,59
41700,-1.1633,0.29419,-0.17139,39,62,178,59
41720,-1.1011,0.39282,-0.12158,39,62,178,59
41740,-0.34741,0.23438,-0.6330600000000001,39,62,178,59
41760,-0.90723,0.5332,-0.18384,39,62,178,59
41780,-0.8962399999999999,0.28638,-0.20508,39,62,178,59
41800,1.0208,-0.27515,0.37061,39,62,178,59
41820,0.0271,0.094482,0.15185,39,62,178,59
41840,-1.1152,0.31641,-0.091309,39,62,178,59
41860,-2.0,0.38892,0.1062,39,62,178,59
41880,-2.0,1.0752,-0.9419,39,62,178,59
41900,-0.3010199999999999,0.01001,-0.61865,39,62,178,59
41920,0.40186,-0.057861,-0.18018,39,62,178,59
41940,-1.5867,0.81152,-0.66992,39,62,178,59
41960,-1.1121,0.40283,-0.55835,39,62,178,59
41980,-0.39624,0.014893,0.1394,39,62,178,59
42000,-0.75488,0.32861,-0.036133,39,62,178,59
42020,-2.0,1.7080000000000002,0.72192,39,62,178,59
42040,0.77466,-0.007568,-0.13721,39,62,178,59
42060,-0.7959,0.46948,0.035889,39,62,178,59
42080,-0.95313,0.2688,-0.094238,39,62,178,59
42100,-1.4292,0.46851,-0.2085,39,62,178,59
42120,0.29199,-0.026123,-0.22046,39,62,178,59
42140,-0.40698,-0.02832,-0.14063,40,24,165,78
42160,-0.92627,-0.009521,0.037842,40,24,165,78
42180,-1.1975,0.53101,-0.35596,40,24,165,78
42200,-2.0,0.81519,-0.28223,40,24,165,78
42220,0.55908,-0.035889,-0.42871,40,24,165,78
42240,-1.0652,0.73047,-0.48169,40,24,165,78
42260,-1.2427,0.46509,0.003174,40,24,165,78
42280,0.42236,-0.091064,-0.26172,40,24,165,78
42300,-1.7517,0.006836,0.44189,40,24,165,78
42320,-1.4749,0.6601600000000001,-0.20898,40,24,165,78
42340,-0.36841,0.12695,0.27051,40,24,165,78
42360,-2.0,1.7585,-1.491,40,24,165,78
42380,-2.0,1.6194,-1.0476,40,24,165,78
42400,0.40576,-0.27954,0.027832,40,24,165,78
42420,-0.33252,-0.039795,-0.18237,40,24,165,78
42440,-0.85815,0.36963,-0.10376,40,24,165,78
42460,0.27197,-0.049316,-0.022705,40,24,165,78
42480,-0.8471700000000001,0.35059,-0.33716,40,24,165,78
42500,-2.0,0.044922,0.5112300000000001,40,24,165,78
42520,-1.7478,0.2937,0.30859,40,24,165,78
42540,-0.9668,-0.54273,0.045654,40,24,165,78
42560,-1.6980000000000002,0.004639,0.085449,40,24,165,78
42580,-1.7429,0.33472,-0.1294,40,24,165,78
42600,-1.5498,0.29639,0.6342800000000001,40,24,165,78
42620,-1.2424,0.6359899999999999,-0.46729,40,24,165,78
42640,-0.14819,0.016846,-0.11792,40,24,165,78
42660,-1.2815,0.53857,-0.33081,40,24,165,78
42680,-2.0,1.855,-1.1355,40,24,165,78
42700,-0.93994,0.36108,-0.4177300000000001,40,24,165,78
42720,-1.9702,0.74121,-0.5515100000000001,40,24,165,78
42740,-0.53394,-0.034912,-0.0979,40,24,165,78
42760,-0.51563,0.11865,-0.013184,40,24,165,78
42780,-0.8689,0.41626,-0.16138,40,24,165,78
42800,-1.4109,0.24805,0.008301,40,24,165,78
42820,-0.75781,0.28369,-0.11279,40,24,165,78
42840,-0.70581,0.43677,-0.35742,40,24,165,78
42860,-0.51563,0.29541,-0.1919,40,24,165,78
42880,-1.5295,0.45679,-0.23071,40,24,165,78
42900,-0.50269,0.23193,-0.17017,40,24,165,78
42920,-0.4375,0.14526,-0.074463,40,24,165,78
42940,-0.59985,0.3916,-0.024902,40,24,165,78
42960,-0.98926,-0.077637,0.36499,40,24,165,78
42980,1.4177,0.3335,-0.77783,40,24,165,78
43000,-0.65625,0.086426,-0.20581,40,24,165,78
43020,-2.0,0.44165,0.53003,40,24,165,78
43040,-2.0,1.6369999999999998,-0.16382,40,24,165,78
43060,-0.94922,0.54346,0.025391,40,24,165,78
43080,-0.019287,-0.088867,-0.1416,40,24,165,78
43100,-0.79273,-0.0622559999999999,0.14063,40,24,165,78
43120,-1.0369,0.34009,-0.2627,40,24,165,78
43140,-1.7605,0.3864800000000001,0.65308,40,24,165,78
43160,-0.71899,0.15137,-0.24805,41,43,181,94
43180,0.48364,-0.091797,-0.068604,41,43,181,94
43200,-0.40405,-0.32446,0.077148,41,43,181,94
43220,-0.092773,0.008301,-0.19727,41,43,181,94
43240,-0.34326,0.10791,0.068848,41,43,181,94
43260,-1.3813,0.91724,-0.92944,41,43,181,94
43280,-0.43408,0.21899,-0.57471,41,43,181,94
43300,-0.78955,0.2688,0.091797,41,43,181,94
43320,-1.6177,0.99438,0.177,41,43,181,94
43340,-0.5786100000000001,0.41406,-0.2124,41,43,181,94
43360,-1.0774,-0.00293,-0.15332,41,43,181,94
43380,-0.79688,0.3811,-0.40015,41,43,181,94
43400,-0.044434,-0.083984,-0.40698,41,43,181,94
43420,-0.57275,0.13013,-0.21167,41,43,181,94
43440,-0.30347,0.21289,-0.22315,41,43,181,94
43460,-0.42407,0.016113,-0.16211,41,43,181,94
43480,-1.332,0.7922399999999999,-0.21387,41,43,181,94
43500,-1.5867,0.81152,-0.66992,41,43,181,94
43520,-0.68042,0.16626,0.11084,41,43,181,94
43540,-2.0,1.3855,-1.5271,41,43,181,94
43560,-2.0,0.5,1.4512,41,43,181,94
43580,-0.24097,-0.21094,0.064453,41,43,181,94
43600,-0.94873,0.47266,-0.26245,41,43,181,94
43620,-1.4912,0.29468,-0.25098,41,43,181,94
43640,-1.2153,0.48633,-0.28662,41,43,181,94
43660,-0.74756,0.33008,-0.42236,41,43,181,94
43680,-1.9028,0.38501,0.47998,41,43,181,94
43700,-2.0,-0.5769,1.9999,41,43,181,94
43720,-1.5452,-0.20044,-0.38745,41,43,181,94
43740,-0.99976,0.63574,-0.71509,41,43,181,94
43760,-0.8562,0.56226,-0.28906,41,43,181,94
43780,-0.68018,0.1704099999999999,-0.087646,41,43,181,94
43800,-0.16846,0.26758,-0.32422,41,43,181,94
43820,-0.31006,0.008301,-0.13355,41,43,181,94
43840,-2.0,0.27734,-0.10645,41,43,181,94
43860,0.55029,-0.22607,-0.12769,41,43,181,94
43880,-0.9126,0.198,-0.1709,41,43,181,94
43900,1.0618,-0.082764,-0.46582,41,43,181,94
43920,-0.6543,0.28003,-0.15991,41,43,181,94
43940,0.58081,0.011963,-0.12012,41,43,181,94
43960,-0.39282,0.1477099999999999,0.082275,41,43,181,94
43980,-0.98145,0.21191,-0.049072,41,43,181,94
44000,-0.5783699999999999,-0.08374,0.053955,41,43,181,94
44020,-0.08374,-0.39038,-0.02832,42,54,163,89
44040,-1.0828,0.23657,-0.38574,42,54,163,89
44060,-0.41675,0.13452,-0.0832519999999999,42,54,163,89
44080,-0.67725,0.3523,0.050781,42,54,163,89
44100,0.23584,-0.080566,0.10376,42,54,163,89
44120,-0.23926,0.1704099999999999,-0.52344,42,54,163,89
44140,-0.7360800000000001,0.41943,-0.075928,42,54,163,89
44160,-0.4707,0.11865,-0.30542,42,54,163,89
44180,-1.2681,0.2373,-0.19141,42,54,163,89
44200,-2.0,0.77515,-0.88965,42,54,163,89
44220,-1.2473,-0.15771,0.15527,42,54,163,89
44240,-0.24097,1.2819999999999998,-0.08667,42,54,163,89
44260,0.19507,-0.064209,-0.24878,42,54,163,89
44280,-0.1311,-0.14136,-0.095703,42,54,163,89
44300,-1.3623,0.47705,-0.17114,42,54,163,89
44320,-0.68188,0.39063,-0.5844699999999999,42,54,163,89
44340,0.22778,-0.15137,-0.24341,42,54,163,89
44360,-0.097656,0.022217,0.26318,42,54,163,89
44380,0.64941,0.27808,-0.64746,42,54,163,89
44400,0.00415,0.054688,-0.11426,42,54,163,89
44420,-2.0,0.88745,-0.24976,42,54,163,89
44440,-2.0,1.1982,0.39282,42,54,163,89
44460,0.53784,0.30957,-0.2854,42,54,163,89
44480,-0.4663100000000001,0.002441,0.1936,42,54,163,89
44500,0.53418,0.002441,0.040771,42,54,163,89
44520,-0.65918,0.27905,-0.042969,42,54,163,89
44540,-0.94116,0.45117,-0.448,42,54,163,89
44560,0.0700679999999999,-0.008789,-0.092285,42,54,163,89
44580,-0.78076,0.092285,0.18921,42,54,163,89
44600,-1.3369,0.05835,0.77856,42,54,163,89
44620,-1.1338,0.20435,-0.12891,42,54,163,89
44640,-0.027832,-0.31079,-0.37769,42,54,163,89
44660,-1.3096,0.30225,-0.25586,42,54,163,89
44680,0.34888,-0.18384,0.060059,42,54,163,89
44700,0.39136,-0.17822,-0.34326,42,54,163,89
44720,-0.26416,0.096924,-0.53052,42,54,163,89
44740,-2.0,0.68018,-0.59009,42,54,163,89
44760,-0.17407,-0.004883,0.007812,42,54,163,89
44780,-2.0,0.65674,0.44092,42,54,163,89
44800,0.31763,0.1272,0.16773,42,54,163,89
44820,-1.1365,0.59033,-0.28198,42,54,163,89
44840,-0.72754,0.19946,-0.088135,42,54,163,89
44860,-1.9414,0.28833,0.4895,42,54,163,89
44880,0.5473600000000001,0.075928,-0.093018,42,54,163,89
44900,0.62647,-0.10962,-0.0664059999999999,42,54,163,89
44920,-2.0,-0.2998,-0.14966,42,54,163,89
44940,-0.9397,0.1626,-0.10913,42,54,163,89
44960,-0.39697,0.094482,0.23145,42,54,163,89
44980,-0.6713899999999999,0.48682,0.0832519999999999,42,54,163,89
45000,-0.26367,-0.04248,-0.033203,42,54,163,89
45020,-0.46777,0.022705,-0.091064,42,54,163,89
45040,-0.77978,0.016113,0.12891,42,54,163,89
45060,0.23877,-0.11401,-0.12476,42,54,163,89
45080,-0.47656,-0.006592,-0.071777,42,54,163,89
45100,-1.1116,0.29126,-0.15552,42,54,163,89
45120,0.058105,0.11694,-0.14063,42,54,163,89
45140,-1.8098,1.0244,-0.016357,43,65,167,54
45160,1.7639,0.52954,-1.0349,43,65,167,54
45180,-0.5127,0.064941,-0.10669,43,65,167,54
45200,-0.061523,-0.11035,-0.046875,43,65,167,54
45220,-2.0,1.3596,-0.078369,43,65,167,54
45240,-0.34302,0.1023,-0.013184,43,65,167,54
45260,-1.3682,0.25781,0.41748,43,65,167,54
45280,0.16724,-0.013916,-0.21143,43,65,167,54
45300,-1.48,0.27466,-0.34619,43,65,167,54
45320,-0.44751,0.18213,-0.698,43,65,167,54
45340,-0.80933,0.54419,-1.0081,43,65,167,54
45360,-2.0,1.3596,-0.078369,43,65,167,54
45380,-1.2996,0.45996,0.12793,43,65,167,54
45400,0.64258,-0.1330599999999999,-0.15698,43,65,167,54
45420,-1.2261,0.6130399999999999,0.057617,43,65,167,54
45440,-0.5044,0.26782,-0.092773,43,65,167,54
45460,-0.448,0.085449,-0.021484,43,65,167,54
45480,-0.12744,0.27393,-0.39185,43,65,167,54
45500,-0.89355,0.002197,-0.20874,43,65,167,54
45520,-0.7692899999999999,0.33569,0.1342799999999999,43,65,167,54
45540,-1.9683,0.28491,0.27002,43,65,167,54
45560,-2.0,0.35083,0.48926,43,65,167,54
45580,-1.9172,0.042969,-0.24878,43,65,167,54
45600,-2.0,1.3806,-0.41553,43,65,167,54
45620,-2.0,0.56299,-0.074219,43,65,167,54
45640,-0.55957,-0.069336,-0.24927,43,65,167,54
45660,-0.83081,0.091309,-0.5039100000000001,43,65,167,54
45680,-1.0913,0.56445,-0.26074,43,65,167,54
45700,-1.2693,0.604,-0.47095,43,65,167,54
45720,0.22559,-0.26294,-0.19507,43,65,167,54
45740,-1.9792,0.43408,-0.46338,43,65,167,54
45760,-1.2261,0.6130399999999999,0.057617,43,65,167,54
45780,0.049072,-0.15723,-0.44751,43,65,167,54
45800,-2.0,-0.18799,-0.37939,43,65,167,54
45820,-0.8964799999999999,0.43896,-0.1557599999999999,43,65,167,54
45840,-2.0,0.090088,0.4956100000000001,43,65,167,54
45860,-2.0,0.40845,0.90918,43,65,167,54
45880,-2.0,0.080322,0.2697699999999999,43,65,167,54
45900,-1.0554,0.25146,0.16626,43,65,167,54
45920,-1.7297,0.5109899999999999,-0.35669,43,65,167,54
45940,-1.3462,0.54932,-0.29834,43,65,167,54
45960,-0.67407,0.038086,-0.26148,43,65,167,54
45980,-0.49731,0.057861,-0.24316,43,65,167,54
46000,-1.0803,0.48218,-0.26416,43,65,167,54
46020,-0.8222700000000001,0.30347,-0.52905,43,65,167,54
46040,-0.81299,0.051758,0.14014,43,65,167,54
46060,-0.75073,-0.10889,-0.16187,43,65,167,54
46080,-0.29175,0.50781,-0.59302,43,65,167,54
46100,-1.2969,0.18579,0.15479,43,65,167,54
46120,-1.0544,0.20435,-0.0856929999999999,43,65,167,54
46140,-0.94971,0.12842,0.32324,43,65,167,54
46160,-0.8562,0.56226,-0.28906,43,65,167,54
46180,-0.82935,0.26782,-0.1438,43,65,167,54
46200,-1.866,0.39355,-0.49243,43,65,167,54
46220,-0.61255,0.18457,-0.40283,43,65,167,54
46240,0.45898,0.057617,-0.23315,44,46,158,96
46260,0.20703,0.055908,0.21069,44,46,158,96
46280,-0.34888,0.20947,-0.10645,44,46,158,96
46300,-1.7834,0.063232,-0.000977,44,46,158,96
46320,-1.2249,0.62402,-0.21313,44,46,158,96
46340,-0.30151,0.25635,-0.38159,44,46,158,96
46360,-1.6421,0.39746,0.8186,44,46,158,96
46380,-2.0,0.24341,-0.20459,44,46,158,96
46400,-0.7334,0.22485,-0.02124,44,46,158,96
46420,-0.17505,-0.044434,0.16357,44,46,158,96
46440,-0.7106899999999999,0.34668,-0.16113,44,46,158,96
46460,-0.70898,0.1145,0.010986,44,46,158,96
46480,-0.8689,0.41626,-0.16138,44,46,158,96
46500,-0.90137,0.56152,-0.18799,44,46,158,96
46520,-0.72144,0.16211,-0.26221,44,46,158,96
46540,-0.33814,-0.051025,-0.057617,44,46,158,96
46560,-1.7598,0.62036,-0.46191,44,46,158,96
46580,-1.6343,0.027832,-0.5083,44,46,158,96
46600,-0.52051,-0.24536,0.060547,44,46,158,96
46620,-1.49,0.698,-0.11401,44,46,158,96
46640,-1.4958,0.52685,0.18018,44,46,158,96
46660,-0.4751,0.32129,-0.039062,44,46,158,96
46680,-0.11133,0.23315,0.29419,44,46,158,96
46700,-0.65625,0.31396,-0.02417,44,46,158,96
46720,0.5170899999999999,-0.45898,-0.17285,44,46,158,96
46740,-0.9624,0.52759,-0.38232,44,46,158,96
46760,-1.375,0.67847,0.36572,44,46,158,96
46780,-0.38916,0.19116,-0.38721,44,46,158,96
46800,-1.6375,0.42017,-0.19067,44,46,158,96
46820,-0.49585,0.1311,0.057373,44,46,158,96
46840,-2.0,0.802,0.21216,44,46,158,96
46860,-0.5485800000000001,-0.19336,-0.51074,44,46,158,96
46880,-1.6877,0.59473,0.19653,44,46,158,96
46900,-0.4663100000000001,0.002441,0.1936,44,46,158,96
46920,-0.7334,0.27148,-0.1059599999999999,44,46,158,96
46940,-1.0129,0.45386,-0.060791,44,46,158,96
46960,-2.0,0.8691399999999999,-0.35254,44,46,158,96
46980,0.27539,0.8916,-0.37817,44,46,158,96
47000,-0.010986,0.61328,-0.2644,44,46,158,96
47020,0.52832,-0.12354,-0.23096,44,46,158,96
47040,-0.4890100000000001,0.30933,-0.045898,44,46,158,96
47060,-0.8689,0.41626,-0.16138,44,46,158,96
47080,-1.4219,0.50562,0.038818,44,46,158,96
47100,-0.64941,0.2063,-0.27246,44,46,158,96
47120,-0.094238,0.13208,-0.41235,44,46,158,96
47140,-0.62427,0.26929,-0.13135,44,46,158,96
47160,-0.9519,0.54175,-0.38159,44,46,158,96
47180,-1.7571,0.37646,-0.58618,44,46,158,96
47200,-0.32861,0.19019,-0.2229,45,44,154,80
47220,-0.47607,0.16846,-0.15161,45,44,154,80
47240,-0.78345,0.32471,0.02417,45,44,154,80
47260,-1.332,0.7922399999999999,-0.21387,45,44,154,80
47280,-0.94482,0.23389,-0.19067,45,44,154,80
47300,-1.2981,-0.075195,0.27417,45,44,154,80
47320,0.36401,-0.14087,0.28394,45,44,154,80
47340,-1.6582,0.42798,0.5481,45,44,154,80
47360,0.823,-0.2876,-0.50049,45,44,154,80
47380,-0.44751,0.0979,-0.27026,45,44,154,80
47400,-0.20068,-0.14282,0.090332,45,44,154,80
47420,-1.6587,0.29004,0.08252,45,44,154,80
47440,-2.0,1.9999,-1.4741,45,44,154,80
47460,-0.66528,0.21435,-0.271,45,44,154,80
47480,-0.88965,0.28076,-0.090576,45,44,154,80
47500,-1.8923,0.18726,0.4436,45,44,154,80
47520,-0.5,0.15894,-0.25439,45,44,154,80
47540,0.56738,0.004639,-0.19409,45,44,154,80
47560,-2.0,-0.3322699999999999,0.093018,45,44,154,80
47580,-2.0,-0.4184600000000001,-0.6030300000000001,45,44,154,80
47600,-1.449,0.68579,-0.20898,45,44,154,80
47620,-0.5127,0.23267,-0.065674,45,44,154,80
47640,-0.083496,0.16504,0.17822,45,44,154,80
47660,-0.39087,0.076904,-0.40161,45,44,154,80
47680,-0.64893,0.46265,-0.1640599999999999,45,44,154,80
47700,-2.0,0.23852,0.65308,45,44,154,80
47720,0.52832,-0.12354,-0.23096,45,44,154,80
47740,-2.0,0.32129,1.0342,45,44,154,80
47760,-0.6955600000000001,0.27686,-0.13379,45,44,154,80
47780,-1.5461,0.44263,0.47876,45,44,154,80
47800,-2.0,0.55078,-0.34277,45,44,154,80
47820,0.53735,-0.26221,0.24219,45,44,154,80
47840,-1.1521,0.6723600000000001,0.00415,45,44,154,80
47860,-1.2673,0.25806,-0.089844,45,44,154,80
47880,0.56567,0.016602,-0.02417,45,44,154,80
47900,-0.1084,0.12451,-0.068115,45,44,154,80
47920,-0.42749,0.089844,0.073242,45,44,154,80
47940,-0.43555,-0.014648,-0.031006,45,44,154,80
47960,-0.19092,0.28809,-0.79883,45,44,154,80
47980,-2.0,0.22461,0.48364,45,44,154,80
48000,-1.8035,0.18188,0.68433,45,44,154,80
48020,-0.13794,0.076416,0.14209,45,44,154,80
48040,-0.7749,0.47681,-0.20361,45,44,154,80
48060,-0.42822,-0.13013,-0.21997,45,44,154,80
48080,-0.5227,0.0832519999999999,-0.039795,45,44,154,80
48100,0.28394,-0.0856929999999999,0.021729,45,44,154,80
48120,-1.6343,0.027832,-0.5083,45,44,154,80
48140,-0.6716300000000001,0.29077,-0.16455,45,44,154,80
48160,-0.25586,-0.040771,-0.063721,45,44,154,80
48180,-1.2932,0.21655,-0.4248,45,44,154,80
48200,-1.6736,1.0151,0.25073,45,44,154,80
48220,-1.416,1.0146,-0.23389,45,44,154,80
48240,0.5170899999999999,-0.45898,-0.17285,45,44,154,80
48260,-0.88574,0.40869,-0.9978,45,44,154,80
48280,-2.0,0.1425799999999999,-0.43481,45,44,154,80
48300,-0.5127,0.23267,-0.065674,46,52,169,83
48320,-2.0,0.42285,0.7854,46,52,169,83
48340,-1.0623,0.20239,-0.004395,46,52,169,83
48360,0.1604,-0.052002,0.1311,46,52,169,83
48380,-0.5744600000000001,0.36939,-0.015625,46,52,169,83
48400,-0.75562,0.13721,-0.18628,46,52,169,83
48420,-0.94995,0.31811,-0.19971,46,52,169,83
48440,-0.95313,0.22437,-0.24634,46,52,169,83
48460,-1.0657,0.30835,0.12378,46,52,169,83
48480,0.2312,-0.21411,-0.20947,46,52,169,83
48500,-0.098145,0.071289,-0.16773,46,52,169,83
48520,-0.8523,0.24756,-0.018555,46,52,169,83
48540,-1.2229,0.50537,0.16821,46,52,169,83
48560,-0.85083,0.3501,-0.02832,46,52,169,83
48580,-1.2397,-0.057617,-0.75635,46,52,169,83
48600,-1.1033,0.27783,-0.38965,46,52,169,83
48620,-1.6306,0.040039,0.31006,46,52,169,83
48640,0.45483,-0.067139,0.11377,46,52,169,83
48660,-1.9702,0.74121,-0.5515100000000001,46,52,169,83
48680,-1.4797,0.66065,0.083008,46,52,169,83
48700,-1.0786,0.42529,-0.41626,46,52,169,83
48720,-0.4873,0.4148,-0.057373,46,52,169,83
48740,-0.1330599999999999,-0.092529,-0.32446,46,52,169,83
48760,0.66406,-0.30664,-0.24097,46,52,169,83
48780,-1.1875,0.000732,0.096924,46,52,169,83
48800,-1.0747,-0.20557,-0.61621,46,52,169,83
48820,-1.6973,0.23218,0.24463,46,52,169,83
48840,0.33716,-0.13452,-0.13599,46,52,169,83
48860,-2.0,-0.44678,0.6191399999999999,46,52,169,83
48880,-0.24243,0.18188,-0.51294,46,52,169,83
48900,-0.4458,-0.08252,-0.021973,46,52,169,83
48920,-0.74805,0.25098,-0.10132,46,52,169,83
48940,-0.72363,0.009033,-0.007812,46,52,169,83
48960,0.1643099999999999,-0.057373,0.20972,46,52,169,83
48980,-0.17505,-0.044434,0.16357,46,52,169,83
49000,-0.81372,0.30469,-0.35864,46,52,169,83
49020,-0.32666,-0.37866,-0.19678,46,52,169,83
49040,0.34473,0.10425,0.025391,46,52,169,83
49060,0.4165,0.059326,-0.49902,46,52,169,83
49080,0.093506,-0.0271,-0.02832,46,52,169,83
49100,-2.0,0.50732,0.007812,46,52,169,83
49120,-0.97363,-0.10205,-0.56128,46,52,169,83
49140,0.86206,-0.5412600000000001,-0.21729,46,52,169,83
49160,-0.89575,0.44775,0.26294,46,52,169,83
49180,-1.365,0.18457,-0.37793,46,52,169,83
49200,0.92749,0.32593,-0.38477,46,52,169,83
49220,-1.3528,0.083984,0.19653,46,52,169,83
49240,-1.1011,0.39282,-0.12158,46,52,169,83
49260,-0.032471,0.1521,-0.30395,46,52,169,83
49280,-0.2395,0.40674,-0.70581,46,52,169,83
49300,-2.0,0.041016,0.053467,46,52,169,83
49320,-0.017578,0.006104,-0.031494,46,52,169,83
49340,0.46118,-0.15063,0.066162,46,52,169,83
49360,-1.4004,1.1033,-1.3723,46,52,169,83
49380,-1.7153,0.35571,0.8005399999999999,46,52,169,83
49400,-0.41821,-0.002197,-0.061523,46,52,169,83
49420,-0.82373,0.43774,-0.030518,46,52,169,83
49440,0.56274,-0.15527,-0.33496,46,52,169,83
49460,-1.1409,0.61645,-0.41406,46,52,169,83
49480,-1.1797,0.2727,-0.11523,46,52,169,83
49500,-0.64722,0.23364,-0.36133,47,25,151,84
49520,-1.1001,0.6228,-0.23047,47,25,151,84
49540,-1.9937,0.9668,0.064209,47,25,151,84
49560,-0.30664,-0.28491,-0.016602,47,25,151,84
49580,-1.4114,0.74365,-0.57471,47,25,151,84
49600,-0.57007,0.39941,-0.25244,47,25,151,84
49620,0.71533,0.18262,-0.34058,47,25,151,84
49640,-0.8959999999999999,0.40674,-0.40186,47,25,151,84
49660,-1.5012,0.78565,-0.086182,47,25,151,84
49680,-2.0,-0.7692899999999999,-0.1875,47,25,151,84
49700,-0.33252,-0.039795,-0.18237,47,25,151,84
49720,0.0778809999999999,-0.062744,-0.3269,47,25,151,84
49740,0.007812,-0.082764,0.21045,47,25,151,84
49760,-2.0,0.22949,0.52612,47,25,151,84
49780,-2.0,-0.3523,-0.7959,47,25,151,84
49800,-2.0,0.43604,0.051025,47,25,151,84
49820,-2.0,0.13013,-0.74902,47,25,151,84
49840,-2.0,0.77393,0.12817,47,25,151,84
49860,-2.0,-0.002197,-0.30176,47,25,151,84
49880,-1.0005,0.23218,-0.11475,47,25,151,84
49900,-0.81519,0.69067,-0.5844699999999999,47,25,151,84
49920,-0.5,0.15894,-0.25439,47,25,151,84
49940,-0.95605,0.18628,-0.5188,47,25,151,84
49960,-0.51025,0.32227,-0.063232,47,25,151,84
49980,-0.1648,-0.32861,0.20044,47,25,151,84
50000,-0.25635,-0.24341,0.10205,47,25,151,84
50020,0.35449,-0.05249,0.011719,47,25,151,84
50040,-1.9282,1.0547,-0.52222,47,25,151,84
50060,-1.135,0.45996,0.068115,47,25,151,84
50080,0.092529,-0.091064,-0.026367,47,25,151,84
50100,-2.0,0.36255,0.49585,47,25,151,84
50120,-2.0,0.69116,0.8408200000000001,47,25,151,84
50140,-1.7336,0.19116,0.36939,47,25,151,84
50160,-0.34741,0.23438,-0.6330600000000001,47,25,151,84
50180,-0.012207,0.018311,0.072021,47,25,151,84
50200,-0.93018,0.27759,-0.04248,47,25,151,84
50220,-0.8762200000000001,0.22266,-0.15137,47,25,151,84
50240,-1.0276,0.36475,0.12158,47,25,151,84
50260,-1.9067,1.0295,-0.74048,47,25,151,84
50280,-0.3269,-0.40186,0.24854,47,25,151,84
50300,-0.84399,0.64673,-0.076904,47,25,151,84
50320,-2.0,-0.28052,-0.48438,47,25,151,84
50340,-0.59741,0.046387,-0.0634769999999999,47,25,151,84
50360,0.45898,0.057617,-0.23315,47,25,151,84
50380,-0.8103,-0.3916,-0.32568,47,25,151,84
50400,-1.4866,0.5856899999999999,-0.5173300000000001,47,25,151,84
50420,-0.86816,0.30249,-0.15796,47,25,151,84
50440,-1.2551,0.51148,0.37939,47,25,151,84
50460,-0.64453,-0.095215,-0.0856929999999999,47,25,151,84
50480,-2.0,-0.19727,-0.35889,47,25,151,84
50500,-1.1382,0.44507,-0.49194,47,25,151,84
50520,-2.0,1.2029,-0.67602,47,25,151,84
50540,-0.41162,-0.10352,0.040771,47,25,151,84
50560,-0.5776399999999999,0.38672,-0.37012,47,25,151,84
50580,0.33765,0.054443,-0.11523,47,25,151,84
50600,-2.0,1.7976,-0.2439,47,25,151,84
50620,-2.0,-0.17602,0.6469699999999999,47,25,151,84
50640,-0.71753,0.21924,-0.50952,47,25,151,84
50660,-0.81152,0.60107,-0.13208,47,25,151,84
50680,-0.68066,0.075195,-0.44531,47,25,151,84
50700,-0.73364,0.3689,0.020508,47,25,151,84
50720,-0.063721,-0.33032,-0.19922,47,25,151,84
50740,-0.72144,0.16211,-0.26221,47,25,151,84
50760,-1.9792,0.8103,-0.39966,47,25,151,84
50780,-1.1255,0.48413,-0.21118,47,25,151,84
50800,-0.35693,0.071289,-0.32398,47,25,151,84
50820,1.9999,0.36572,-1.6582,47,25,151,84
50840,-1.4727,0.5795899999999999,0.22559,47,25,151,84
50860,-0.53491,0.32886,-0.033447,48,64,190,90
50880,-0.7087399999999999,-0.24854,0.005615,48,64,190,90
50900,-0.45117,0.12402,-0.28662,48,64,190,90
50920,-2.0,0.69116,0.8408200000000001,48,64,190,90
50940,-1.2771,0.6420899999999999,0.5273399999999999,48,64,190,90
50960,-1.3555,0.28149,0.25952,48,64,190,90
50980,-0.61987,0.33252,-0.068115,48,64,190,90
51000,-0.001221,0.012207,-0.11816,48,64,190,90
51020,-1.4741,0.53247,0.24634,48,64,190,90
51040,0.24316,-0.008545,-0.17017,48,64,190,90
51060,-2.0,1.6111,-0.42676,48,64,190,90
51080,-0.86182,0.28882,-0.38306,48,64,190,90
51100,-2.0,0.23852,0.65308,48,64,190,90
51120,-1.9465,1.2361,0.40356,48,64,190,90
51140,-1.0352,0.4497100000000001,-0.31177,48,64,190,90
51160,-0.67725,0.3523,0.050781,48,64,190,90
51180,-0.25439,0.093018,0.004639,48,64,190,90
51200,-0.33032,0.34058,-0.17749,48,64,190,90
51220,-1.5684,0.1377,0.15649,48,64,190,90
51240,-0.4773,-0.011963,-0.29956,48,64,190,90
51260,-0.35327,-0.13501,0.25732,48,64,190,90
51280,-1.4673,0.3833,-0.52661,48,64,190,90
51300,-0.41577,-0.001953,-0.004395,48,64,190,90
51320,-0.8920899999999999,0.087891,0.016846,48,64,190,90
51340,-0.34741,-0.13208,0.21826,48,64,190,90
51360,-0.70508,0.43823,-0.42212,48,64,190,90
51380,-1.4355,0.1311,0.096924,48,64,190,90
51400,-0.85815,0.36963,-0.10376,48,64,190,90
51420,-2.0,0.36133,-1.6987,48,64,190,90
51440,-0.31665,-0.09375,-0.031982,48,64,190,90
51460,-1.7261,0.50977,0.1875,48,64,190,90
