timestamp,accX,accY,accZ,Subject_ID,Age,Height_cm,Weight_kg
0,0.0564,-0.23706,1.0049,1,32,163,97
20,0.04981,-0.24243,1.0173,1,32,163,97
40,-0.22315,-0.52978,0.8737799999999999,1,32,163,97
60,-0.21777,-0.48584,0.8654799999999999,1,32,163,97
80,0.28931,0.42847,0.93799,1,32,163,97
100,-0.12646,-0.42725,0.92798,1,32,163,97
120,0.36352,0.33618,0.89185,1,32,163,97
140,0.15161,0.27637,0.97827,1,32,163,97
160,-0.12842,-0.42773,0.94971,1,32,163,97
180,0.3125,0.30029,0.94605,1,32,163,97
200,0.2666,0.2697699999999999,0.94898,1,32,163,97
220,-0.19751,-0.44531,0.95923,1,32,163,97
240,0.31055,0.27515,0.9436,1,32,163,97
260,-0.18799,-0.4751,0.90723,1,32,163,97
280,0.26953,0.18091,0.97998,1,32,163,97
300,-0.15845,-0.35474,0.9104,1,32,163,97
320,-0.02417,-0.44043,0.93237,1,32,163,97
340,-0.16333,-0.40552,0.93848,1,32,163,97
360,0.27515,0.18286,0.97998,1,32,163,97
380,0.32886,0.24414,0.95727,1,32,163,97
400,-0.13696,-0.42212,0.92407,1,32,163,97
420,-0.04565,-0.42773,0.93603,1,32,163,97
440,-0.15967,-0.43872,0.91943,1,32,163,97
460,0.03662,-0.34912,0.97974,1,32,163,97
480,-0.1731,-0.40259,0.94092,1,32,163,97
500,0.0227,-0.23877,0.97315,1,32,163,97
520,0.30762,0.29639,0.93359,1,32,163,97
540,-0.05029,-0.31396,1.0313,1,32,163,97
560,-0.15503,-0.38989,0.94849,1,32,163,97
580,-0.0529799999999999,-0.3623,1.0078,1,32,163,97
600,-0.14624,-0.396,0.95654,1,32,163,97
620,0.37866,0.12695,0.96143,1,32,163,97
640,0.20898,0.28906,0.96265,1,32,163,97
660,-0.09033,-0.4773,0.92822,1,32,163,97
680,0.15747,0.38965,0.91675,1,32,163,97
700,0.31226,0.29248,0.94385,1,32,163,97
720,0.18213,0.36328,0.94482,1,32,163,97
740,0.24927,0.1328099999999999,1.0012,1,32,163,97
760,0.1604,0.35083,0.93066,1,32,163,97
780,0.32861,0.37842,0.8945299999999999,1,32,163,97
800,0.2627,0.17017,0.98852,1,32,163,97
820,-0.10205,-0.39404,0.97778,1,32,163,97
840,0.36694,0.1831,0.9856,1,32,163,97
860,-0.2063,-0.40381,0.92261,1,32,163,97
880,0.28589,0.3352,0.93018,1,32,163,97
900,0.39111,0.10449,0.9624,1,32,163,97
920,0.29273,0.29395,0.95557,1,32,163,97
940,0.01685,-0.44775,0.94434,1,32,163,97
960,-0.12744,-0.35205,0.96118,1,32,163,97
980,-0.16919,-0.43213,0.9126,1,32,163,97
1000,0.29956,0.19141,0.96802,1,32,163,97
1020,-0.06787,-0.4126,0.94971,1,32,163,97
1040,0.00391,-0.3501,0.99292,1,32,163,97
1060,0.16235,0.32373,0.96728,1,32,163,97
1080,0.31519,0.29932,0.94312,1,32,163,97
1100,0.01343,-0.35352,0.98657,1,32,163,97
1120,-0.12158,-0.37183,0.96265,1,32,163,97
1140,-0.16235,-0.41406,0.94531,1,32,163,97
1160,0.20117,0.36401,0.9375,1,32,163,97
1180,0.01196,-0.39819,0.96997,1,32,163,97
1200,-0.18701,-0.40405,0.94116,1,32,163,97
1220,0.2644,0.19165,1.0002,1,32,163,97
1240,-0.22949,-0.3772,0.91382,1,32,163,97
1260,0.28418,0.18701,0.97632,1,32,163,97
1280,-0.08789,-0.43237,0.94263,1,32,163,97
1300,-0.03442,-0.41602,0.93994,1,32,163,97
1320,0.03931,-0.39819,0.97192,1,32,163,97
1340,-0.16162,-0.48633,0.89575,1,32,163,97
1360,0.27881,0.18848,0.97681,1,32,163,97
1380,0.09131,-0.36939,0.96973,1,32,163,97
1400,0.16675,0.34155,0.94824,1,32,163,97
1420,0.31519,0.32495,0.92602,1,32,163,97
1440,0.20605,0.3562,0.93555,1,32,163,97
1460,0.30273,0.15332,0.98193,1,32,163,97
1480,-0.16919,-0.44263,0.91528,1,32,163,97
1500,0.03272,-0.38355,0.96973,1,32,163,97
1520,0.2644,0.16504,0.97998,1,32,163,97
1540,0.36597,0.2168,0.94238,1,32,163,97
1560,0.04028,-0.35791,0.98096,1,32,163,97
1580,0.18628,0.34106,0.94946,1,32,163,97
1600,-0.0571299999999999,-0.43481,0.93848,1,32,163,97
1620,-0.18481,-0.43359,0.92993,1,32,163,97
1640,-0.07935,-0.40747,0.95313,1,32,163,97
1660,0.17017,0.37061,0.94043,1,32,163,97
1680,0.03101,-0.37988,0.97022,1,32,163,97
1700,-0.04639,-0.43726,0.9082,1,32,163,97
1720,0.32837,0.31226,0.92773,1,32,163,97
1740,0.02026,-0.38232,0.96533,1,32,163,97
1760,0.18823,0.36865,0.94238,1,32,163,97
1780,0.01587,-0.3977,0.96704,1,32,163,97
1800,0.19458,0.37817,0.94336,1,32,163,97
1820,-0.23535,-0.46167,0.9043,1,32,163,97
1840,0.19409,0.34839,0.9502,1,32,163,97
1860,-0.0415,-0.46729,0.94531,1,32,163,97
1880,0.02856,-0.36743,0.96973,1,32,163,97
1900,-0.17163,-0.35864,0.93066,1,32,163,97
1920,-0.16626,-0.40771,0.90918,1,32,163,97
1940,-0.0166,-0.43481,0.96289,1,32,163,97
1960,-0.12744,-0.44189,0.91504,1,32,163,97
1980,0.03369,-0.3811,0.94898,1,32,163,97
2000,-0.0581,-0.44995,0.92529,1,32,163,97
2020,0.04297,-0.37793,0.96387,1,32,163,97
2040,0.26904,0.16748,0.95752,1,32,163,97
2060,-0.17065,-0.40186,0.93481,1,32,163,97
2080,0.26416,0.17261,0.98511,1,32,163,97
2100,0.0564,-0.40527,0.95727,1,32,163,97
2120,0.1738299999999999,0.3418,0.96387,1,32,163,97
2140,-0.15308,-0.40015,0.94287,1,32,163,97
2160,0.08325,-0.36206,0.96289,1,32,163,97
2180,0.26172,0.17456,0.9956,1,32,163,97
2200,0.17773,0.3728,0.94043,1,32,163,97
2220,0.26685,0.22583,0.97583,1,32,163,97
2240,0.37891,0.12061,0.95044,1,32,163,97
2260,0.01514,-0.37988,0.93579,1,32,163,97
2280,0.30908,0.23633,0.94922,1,32,163,97
2300,-0.00195,-0.34863,1.0046,1,32,163,97
2320,0.20508,0.34644,0.92944,1,32,163,97
2340,-0.20288,-0.40503,0.93603,1,32,163,97
2360,0.00269,-0.38989,0.96582,1,32,163,97
2380,0.27368,0.18213,0.97852,1,32,163,97
2400,0.01685,-0.38672,0.96435,1,32,163,97
2420,0.02881,-0.39893,0.96411,1,32,163,97
2440,0.31885,0.33179,0.8845200000000001,1,32,163,97
2460,0.03784,-0.40405,0.95752,1,32,163,97
2480,0.30908,0.29761,0.9397,1,32,163,97
2500,-0.1604,-0.42871,0.92578,1,32,163,97
2520,0.12427,-0.21533,0.98633,1,32,163,97
2540,-0.34741,-0.39551,0.94263,1,32,163,97
2560,-0.13452,-0.36768,0.97095,2,51,181,80
2580,-0.15869,-0.39697,0.93237,2,51,181,80
2600,0.06592,-0.24463,1.0051,2,51,181,80
2620,-0.0105,-0.42554,0.94922,2,51,181,80
2640,0.03101,-0.36987,0.97949,2,51,181,80
2660,0.04321,-0.40552,0.9585,2,51,181,80
2680,0.26855,0.17114,0.99341,2,51,181,80
2700,-0.15845,-0.47607,0.90137,2,51,181,80
2720,0.04346,-0.38672,0.94922,2,51,181,80
2740,-0.1831,-0.37012,0.95947,2,51,181,80
2760,0.23779,0.15283,1.0229,2,51,181,80
2780,0.375,0.17969,0.95532,2,51,181,80
2800,0.3584,0.08106,0.98071,2,51,181,80
2820,-0.17798,-0.44019,0.91675,2,51,181,80
2840,0.04639,-0.37744,0.96924,2,51,181,80
2860,0.30225,0.25952,0.95776,2,51,181,80
2880,-0.25098,-0.42847,0.96826,2,51,181,80
2900,-0.1814,-0.43896,0.92114,2,51,181,80
2920,0.20264,0.28564,0.96509,2,51,181,80
2940,0.32642,0.34668,0.90601,2,51,181,80
2960,-0.05322,-0.45337,0.92529,2,51,181,80
2980,-0.17602,-0.38208,0.8691399999999999,2,51,181,80
3000,-0.19263,-0.4043,0.92554,2,51,181,80
3020,0.19556,0.36255,0.95581,2,51,181,80
3040,0.25806,0.17407,0.98193,2,51,181,80
3060,0.2605,0.17334,0.97656,2,51,181,80
3080,0.38672,0.21606,0.9314,2,51,181,80
3100,-0.24536,-0.26685,0.6835899999999999,2,51,181,80
3120,0.1342799999999999,0.29639,1.0007,2,51,181,80
3140,-0.16138,-0.46826,0.91699,2,51,181,80
3160,-0.22534,-0.46314,0.94067,2,51,181,80
3180,-0.00195,-0.34863,1.0046,2,51,181,80
3200,0.18042,0.35913,0.94702,2,51,181,80
3220,0.01978,-0.4292,0.94238,2,51,181,80
3240,0.17725,0.36816,0.95093,2,51,181,80
3260,-0.11865,-0.35938,0.93237,2,51,181,80
3280,0.03589,-0.37134,0.97241,2,51,181,80
3300,0.31494,0.30957,0.92432,2,51,181,80
3320,0.021,-0.28589,0.99609,2,51,181,80
3340,0.0354,-0.41113,0.96533,2,51,181,80
3360,0.27393,0.15454,0.98584,2,51,181,80
3380,0.1814,0.3689,0.94238,2,51,181,80
3400,-0.11963,-0.37793,0.96631,2,51,181,80
3420,0.1789599999999999,0.37036,0.94116,2,51,181,80
3440,0.03174,-0.37622,0.97266,2,51,181,80
3460,0.18188,0.36182,0.9353,2,51,181,80
3480,0.0139199999999999,-0.3977,0.95801,2,51,181,80
3500,0.36572,0.21191,0.93897,2,51,181,80
3520,0.02368,-0.39185,0.95947,2,51,181,80
3540,0.3064,0.16162,0.98364,2,51,181,80
3560,-0.21729,-0.4743600000000001,0.8928200000000001,2,51,181,80
3580,0.33398,0.27246,0.94116,2,51,181,80
3600,0.34985,0.29956,0.93164,2,51,181,80
3620,0.0354,-0.40015,0.97412,2,51,181,80
3640,0.37158,0.1416,0.93677,2,51,181,80
3660,0.02246,-0.36597,0.94605,2,51,181,80
3680,0.05054,-0.3894,0.96313,2,51,181,80
3700,-0.17798,-0.45508,0.92578,2,51,181,80
3720,0.20801,0.3396,0.93652,2,51,181,80
3740,-0.20776,-0.41235,0.90259,2,51,181,80
3760,-0.03809,-0.43408,0.95166,2,51,181,80
3780,-0.21484,-0.4643600000000001,0.9248,2,51,181,80
3800,-0.17725,-0.41504,0.94214,2,51,181,80
3820,-0.15185,-0.4314,0.89551,2,51,181,80
3840,-0.23389,-0.4585,0.94922,2,51,181,80
3860,-0.23682,-0.54004,0.80102,2,51,181,80
3880,0.27564,0.17139,0.98242,2,51,181,80
3900,0.01978,-0.38599,0.95215,2,51,181,80
3920,0.29639,0.1394,0.99097,2,51,181,80
3940,-0.19312,-0.39893,0.91846,2,51,181,80
3960,0.19873,0.36133,0.94775,2,51,181,80
3980,0.01099,-0.3523,0.98096,2,51,181,80
4000,-0.1342799999999999,-0.37305,0.95703,2,51,181,80
4020,-0.02515,-0.36694,0.91846,2,51,181,80
4040,0.00366,-0.37109,0.95947,2,51,181,80
4060,0.26221,0.17456,0.98096,2,51,181,80
4080,0.03394,-0.19287,1.0378,2,51,181,80
4100,-0.22388,-0.4802300000000001,0.9082,2,51,181,80
4120,0.00391,-0.39526,0.97925,2,51,181,80
4140,-0.17578,-0.39868,0.92212,2,51,181,80
4160,-0.0083,-0.42163,0.95386,2,51,181,80
4180,0.26807,0.1687,0.98999,2,51,181,80
4200,0.00293,-0.39355,0.96655,2,51,181,80
4220,0.20068,0.35767,0.94556,2,51,181,80
4240,0.28394,0.25513,0.96973,2,51,181,80
4260,0.18872,0.33057,0.96289,2,51,181,80
4280,0.04077,-0.38818,0.95727,2,51,181,80
4300,-0.24658,-0.4436,0.92236,2,51,181,80
4320,0.20337,0.2771,0.96997,2,51,181,80
4340,0.13623,0.36865,0.94092,2,51,181,80
4360,0.16748,0.33398,0.95874,2,51,181,80
4380,-0.16699,-0.38989,0.9458,2,51,181,80
4400,0.30518,0.36694,0.90283,2,51,181,80
4420,0.21167,0.28125,0.97144,2,51,181,80
4440,-0.08252,-0.4231,0.92969,2,51,181,80
4460,0.18701,0.3335,0.96094,2,51,181,80
4480,0.02905,-0.36865,0.95508,2,51,181,80
4500,0.02441,-0.38355,0.95654,2,51,181,80
4520,-0.02051,-0.24658,1.0159,2,51,181,80
4540,-0.20581,-0.44678,0.90869,2,51,181,80
4560,-0.11768,-0.38355,0.96606,2,51,181,80
4580,0.16211,0.32739,0.94995,2,51,181,80
4600,0.02148,-0.34131,0.97559,2,51,181,80
4620,0.30737,0.25488,0.95142,2,51,181,80
4640,-0.14453,-0.41992,0.93335,2,51,181,80
4660,0.01343,-0.35498,0.96924,2,51,181,80
4680,0.09375,-0.23755,1.0051,2,51,181,80
4700,-0.17822,-0.39404,0.9563,2,51,181,80
4720,0.01001,-0.37964,0.97168,2,51,181,80
4740,-0.18237,-0.46777,0.8989299999999999,2,51,181,80
4760,0.15112,0.31055,0.96631,2,51,181,80
4780,-0.01929,-0.43823,0.95044,2,51,181,80
4800,0.02564,-0.38184,0.979,2,51,181,80
4820,0.30469,0.27441,0.93408,2,51,181,80
4840,-0.0061,-0.40259,0.95264,2,51,181,80
4860,0.22412,0.10254,1.02,2,51,181,80
4880,0.14063,0.28857,0.97607,2,51,181,80
4900,0.2915,0.31763,0.92822,2,51,181,80
4920,-0.16309,-0.40356,0.9375,2,51,181,80
4940,0.04224,-0.40918,0.95703,2,51,181,80
4960,0.1604,0.37109,0.95459,2,51,181,80
4980,0.26855,0.1731,0.98193,2,51,181,80
5000,0.35132,0.27173,0.92602,2,51,181,80
5020,0.0022,-0.3562,0.97339,2,51,181,80
5040,-0.16016,-0.43335,0.93091,2,51,181,80
5060,0.15161,0.32495,0.96167,2,51,181,80
5080,0.0712899999999999,-0.20117,0.97974,2,51,181,80
5100,-0.11279,-0.36182,0.96289,3,38,171,61
5120,0.07666,-0.22705,1.0144,3,38,171,61
5140,0.04443,-0.35523,0.97925,3,38,171,61
5160,0.16211,0.32739,0.94995,3,38,171,61
5180,0.03686,-0.36792,0.96338,3,38,171,61
5200,0.30225,0.3147,0.94312,3,38,171,61
5220,-0.16309,-0.40942,0.95386,3,38,171,61
5240,-0.03491,-0.36572,0.97412,3,38,171,61
5260,-0.17822,-0.39795,0.93359,3,38,171,61
5280,-0.01856,-0.44165,0.93579,3,38,171,61
5300,-0.0105,-0.37769,0.9624,3,38,171,61
5320,0.33472,0.22485,0.95264,3,38,171,61
5340,-0.1340299999999999,-0.37793,0.94824,3,38,171,61
5360,0.38574,0.11865,0.95532,3,38,171,61
5380,-0.04224,-0.27661,0.94092,3,38,171,61
5400,-0.18481,-0.41357,0.9292,3,38,171,61
5420,0.20142,0.27368,0.97095,3,38,171,61
5440,0.30469,0.29883,0.95581,3,38,171,61
5460,0.31714,0.37915,0.89697,3,38,171,61
5480,-0.20923,-0.40259,0.94165,3,38,171,61
5500,0.40308,0.11768,0.96191,3,38,171,61
5520,-0.02075,-0.48438,1.0737,3,38,171,61
5540,0.25391,0.35425,0.93872,3,38,171,61
5560,0.35889,0.26245,0.94434,3,38,171,61
5580,0.20093,0.35303,0.94165,3,38,171,61
5600,-0.01318,-0.35718,0.97754,3,38,171,61
5620,0.29956,0.33643,0.92334,3,38,171,61
5640,-0.03613,-0.38525,0.95972,3,38,171,61
5660,0.18335,0.33472,0.94678,3,38,171,61
5680,0.02026,-0.35523,0.98608,3,38,171,61
5700,-0.12378,-0.36426,0.9646,3,38,171,61
5720,-0.18799,-0.4082,0.94019,3,38,171,61
5740,-0.18457,-0.4118600000000001,0.91846,3,38,171,61
5760,0.00806,-0.38428,0.96094,3,38,171,61
5780,0.33154,0.25855,0.95093,3,38,171,61
5800,-0.14453,-0.41504,0.92871,3,38,171,61
5820,-0.04419,-0.4331100000000001,0.93384,3,38,171,61
5840,0.1377,0.33374,0.96118,3,38,171,61
5860,0.30664,0.16162,0.97754,3,38,171,61
5880,0.26074,0.17847,0.96875,3,38,171,61
5900,0.37061,0.21558,0.94263,3,38,171,61
5920,0.39648,0.12427,0.95776,3,38,171,61
5940,-0.00366,-0.33911,0.98755,3,38,171,61
5960,-0.05249,-0.43237,0.94434,3,38,171,61
5980,0.177,0.36035,0.94092,3,38,171,61
6000,-0.02051,-0.43921,0.93799,3,38,171,61
6020,0.2727,0.16626,0.94995,3,38,171,61
6040,0.02197,-0.41943,0.948,3,38,171,61
6060,0.1748,0.34497,0.95215,3,38,171,61
6080,0.31934,0.3352,0.927,3,38,171,61
6100,0.18213,0.34985,0.95825,3,38,171,61
6120,-0.20288,-0.32666,0.98852,3,38,171,61
6140,-0.05469,-0.43189,0.93652,3,38,171,61
6160,-0.14087,-0.42065,0.94116,3,38,171,61
6180,0.25366,0.15991,0.98804,3,38,171,61
6200,-0.19312,-0.44409,0.90991,3,38,171,61
6220,-0.0874,-0.44482,0.9248,3,38,171,61
6240,0.37573,0.11011,0.96973,3,38,171,61
6260,-0.1640599999999999,-0.40356,0.92651,3,38,171,61
6280,-0.18579,-0.40503,0.9331,3,38,171,61
6300,-0.05591,-0.43848,0.94434,3,38,171,61
6320,0.02783,-0.38306,0.96411,3,38,171,61
6340,-0.01489,-0.40015,0.93213,3,38,171,61
6360,0.29883,0.20068,0.97388,3,38,171,61
6380,0.33325,0.36548,0.90527,3,38,171,61
6400,0.1687,-0.20117,0.9939,3,38,171,61
6420,-0.0564,-0.4497100000000001,0.92578,3,38,171,61
6440,-0.17651,-0.40601,0.93188,3,38,171,61
6460,0.26343,0.17334,0.98218,3,38,171,61
6480,0.15112,0.31055,0.96631,3,38,171,61
6500,0.04541,-0.39648,0.96753,3,38,171,61
6520,-0.20654,-0.48438,0.92261,3,38,171,61
6540,-0.1789599999999999,-0.45557,0.91821,3,38,171,61
6560,-0.05395,-0.44775,0.93408,3,38,171,61
6580,0.31079,0.25806,0.93408,3,38,171,61
6600,0.00269,-0.44751,0.93018,3,38,171,61
6620,0.00073,-0.39648,0.96655,3,38,171,61
6640,0.01978,-0.37402,0.97437,3,38,171,61
6660,0.31763,0.31641,0.91846,3,38,171,61
6680,0.17456,0.36572,0.94214,3,38,171,61
6700,0.26294,0.17847,0.98511,3,38,171,61
6720,0.36841,0.20874,0.95288,3,38,171,61
6740,-0.17847,-0.396,0.93799,3,38,171,61
6760,0.21338,0.34106,0.95557,3,38,171,61
6780,-0.11426,-0.5151399999999999,0.8635200000000001,3,38,171,61
6800,0.29077,0.17334,0.95142,3,38,171,61
6820,0.04321,-0.40552,0.9585,3,38,171,61
6840,0.01904,-0.35474,0.98267,3,38,171,61
6860,-0.18335,-0.47998,0.90234,3,38,171,61
6880,0.01343,-0.40527,0.96045,3,38,171,61
6900,0.02148,-0.38525,0.97144,3,38,171,61
6920,-0.18628,-0.47681,0.90015,3,38,171,61
6940,0.04199,-0.37305,0.96875,3,38,171,61
6960,-0.16895,-0.47534,0.90259,3,38,171,61
6980,0.37231,0.14917,0.92944,3,38,171,61
7000,0.14477,0.34375,0.94678,3,38,171,61
7020,0.26953,0.18091,0.97998,3,38,171,61
7040,0.47778,0.36328,1.0244,3,38,171,61
7060,-0.06836,-0.41821,0.9458,3,38,171,61
7080,0.27124,0.18481,0.99121,3,38,171,61
7100,-0.146,-0.40088,0.9458,3,38,171,61
7120,0.03467,-0.24146,0.98438,3,38,171,61
7140,0.31811,0.38965,0.89575,3,38,171,61
7160,0.10449,-0.24048,1.0017,3,38,171,61
7180,0.02856,-0.36963,0.98291,3,38,171,61
7200,0.26953,0.1853,0.98706,3,38,171,61
7220,-0.20532,-0.47852,0.89307,3,38,171,61
7240,0.12915,0.27856,0.97144,3,38,171,61
7260,0.08325,-0.24146,1.0046,3,38,171,61
7280,-0.22168,-0.44605,0.9082,3,38,171,61
7300,0.03906,-0.37939,0.97315,3,38,171,61
7320,-0.15259,-0.41943,0.93457,3,38,171,61
7340,0.00366,-0.37109,0.95947,3,38,171,61
7360,-0.16016,-0.39233,0.94092,3,38,171,61
7380,0.27515,0.18286,0.97998,3,38,171,61
7400,-0.07153,-0.43042,0.96728,3,38,171,61
7420,-0.16187,-0.46387,0.89844,3,38,171,61
7440,-0.0415,-0.43115,0.94092,3,38,171,61
7460,0.18433,-0.17651,1.0522,4,41,160,76
7480,-0.12915,-0.36792,0.95898,4,41,160,76
7500,-0.0527299999999999,-0.42285,0.92578,4,41,160,76
7520,0.27295,0.17407,0.99609,4,41,160,76
7540,-0.12964,-0.37109,0.9624,4,41,160,76
7560,0.26953,0.17773,0.99194,4,41,160,76
7580,0.02295,-0.36157,0.97998,4,41,160,76
7600,0.26489,0.1687,0.97852,4,41,160,76
7620,0.03931,-0.354,0.97583,4,41,160,76
7640,-0.17847,-0.47778,0.8925799999999999,4,41,160,76
7660,0.0822799999999999,0.21973,1.0217,4,41,160,76
7680,0.0249,-0.27319,1.0076,4,41,160,76
7700,0.37817,0.1423299999999999,0.95898,4,41,160,76
7720,0.00342,-0.37329,0.979,4,41,160,76
7740,0.0354,-0.31543,1.04,4,41,160,76
7760,0.14063,0.28857,0.97607,4,41,160,76
7780,0.1294,0.40405,0.93115,4,41,160,76
7800,0.31934,0.29297,0.92773,4,41,160,76
7820,-0.13745,-0.42725,0.94946,4,41,160,76
7840,-0.2019,-0.42407,0.92041,4,41,160,76
7860,-0.16724,-0.42993,0.92529,4,41,160,76
7880,0.25855,0.16504,0.99219,4,41,160,76
7900,0.0527299999999999,-0.37939,0.96558,4,41,160,76
7920,0.01294,-0.38745,0.95459,4,41,160,76
7940,-0.21167,-0.42529,0.91065,4,41,160,76
7960,-0.0737299999999999,-0.39233,0.95581,4,41,160,76
7980,0.28711,0.1735799999999999,0.99072,4,41,160,76
8000,-0.15185,-0.46753,0.8964799999999999,4,41,160,76
8020,-0.21851,-0.37695,0.94165,4,41,160,76
8040,-0.1735799999999999,-0.41357,0.94067,4,41,160,76
8060,-0.20337,-0.4646,0.8959999999999999,4,41,160,76
8080,-0.15625,-0.38403,0.93506,4,41,160,76
8100,0.1704099999999999,0.36768,0.94409,4,41,160,76
8120,0.04443,-0.37915,0.99976,4,41,160,76
8140,-0.14844,-0.39722,0.95557,4,41,160,76
8160,0.2666,0.1748,0.98535,4,41,160,76
8180,0.39551,0.12109,0.95361,4,41,160,76
8200,0.02515,-0.37988,0.97437,4,41,160,76
8220,0.02661,-0.37451,0.96606,4,41,160,76
8240,0.03442,-0.40356,0.94824,4,41,160,76
8260,0.34375,0.23364,0.94434,4,41,160,76
8280,0.32666,0.24341,0.95215,4,41,160,76
8300,-0.06055,-0.45288,0.9353,4,41,160,76
8320,0.26831,0.1709,0.98828,4,41,160,76
8340,-0.17676,-0.40405,0.9231,4,41,160,76
8360,0.2749,0.19238,0.98267,4,41,160,76
8380,-0.05908,-0.45264,0.92578,4,41,160,76
8400,0.03272,-0.34229,1.0051,4,41,160,76
8420,0.20093,0.29004,0.97705,4,41,160,76
8440,0.02564,-0.39063,0.96362,4,41,160,76
8460,0.25977,0.15942,1.0083,4,41,160,76
8480,-0.16016,-0.4148,0.95337,4,41,160,76
8500,0.31909,0.31274,0.90625,4,41,160,76
8520,0.38428,0.1665,0.99902,4,41,160,76
8540,-0.14551,-0.41797,0.92358,4,41,160,76
8560,-0.22192,-0.49536,0.8710899999999999,4,41,160,76
8580,0.30664,0.28394,0.93945,4,41,160,76
8600,-0.21265,-0.48486,1.0061,4,41,160,76
8620,0.26538,0.16748,0.97583,4,41,160,76
8640,0.0332,-0.37134,0.95752,4,41,160,76
8660,0.0227,-0.4248,0.96216,4,41,160,76
8680,0.17944,0.3479,0.95215,4,41,160,76
8700,0.3728,0.2168,0.94312,4,41,160,76
8720,0.37378,0.21729,0.93237,4,41,160,76
8740,0.13648,0.37622,0.94141,4,41,160,76
8760,0.09985,-0.24023,1.0081,4,41,160,76
8780,0.04053,-0.38306,0.96435,4,41,160,76
8800,-0.06616,-0.44873,0.92871,4,41,160,76
8820,0.28345,0.15356,0.99536,4,41,160,76
8840,0.33814,0.33887,0.91309,4,41,160,76
8860,-0.25879,-0.31665,0.95264,4,41,160,76
8880,-0.34326,-0.38428,0.8606,4,41,160,76
8900,0.34473,0.26831,0.92895,4,41,160,76
8920,0.00537,-0.40649,0.97363,4,41,160,76
8940,0.32813,0.36133,0.9165,4,41,160,76
8960,0.27148,0.30395,0.96606,4,41,160,76
8980,0.22144,0.1059599999999999,0.99976,4,41,160,76
9000,-0.17602,-0.47656,0.89746,4,41,160,76
9020,-0.06567,-0.42358,0.95361,4,41,160,76
9040,0.01685,-0.35596,0.98315,4,41,160,76
9060,0.00415,-0.38818,0.96777,4,41,160,76
9080,0.17188,0.36377,0.94336,4,41,160,76
9100,0.27466,0.18286,0.99048,4,41,160,76
9120,-0.15332,-0.38696,0.94531,4,41,160,76
9140,-0.18726,-0.41309,0.96265,4,41,160,76
9160,0.2019,0.36548,0.93823,4,41,160,76
9180,-0.03686,-0.44336,0.9331,4,41,160,76
9200,-0.0957,-0.39648,0.9419,4,41,160,76
9220,0.3855,0.15381,0.96509,4,41,160,76
9240,-0.23267,-0.36255,0.9165,4,41,160,76
9260,0.03516,-0.37378,0.96582,4,41,160,76
9280,0.21509,0.30395,0.95752,4,41,160,76
9300,-0.1648,-0.44849,0.90991,4,41,160,76
9320,0.04297,-0.39819,0.93481,4,41,160,76
9340,0.25586,0.37549,0.95605,4,41,160,76
9360,0.29468,0.15161,0.97803,4,41,160,76
9380,0.21875,0.36157,0.95386,4,41,160,76
9400,0.31567,0.36011,0.90772,4,41,160,76
9420,0.03906,-0.31665,0.96753,4,41,160,76
9440,-0.21338,-0.40381,0.94409,4,41,160,76
9460,-0.02441,-0.42944,0.94507,4,41,160,76
9480,-0.0354,-0.39111,1.0181,4,41,160,76
9500,-0.16089,-0.43481,0.93774,4,41,160,76
9520,0.34473,0.26831,0.92895,4,41,160,76
9540,-0.21094,-0.5764199999999999,0.88403,4,41,160,76
9560,0.19165,0.29492,0.97363,4,41,160,76
9580,0.30859,0.28027,0.93897,4,41,160,76
9600,0.29614,0.29175,0.94629,4,41,160,76
9620,-0.02417,-0.43579,0.9419,4,41,160,76
9640,-0.01269,-0.4436,0.92773,4,41,160,76
9660,0.36084,0.2019,0.9397,4,41,160,76
9680,0.32739,0.19067,0.9602,4,41,160,76
9700,0.29785,0.1853,0.98096,4,41,160,76
9720,0.32398,0.37793,0.8967299999999999,4,41,160,76
9740,0.30225,0.15649,0.96924,4,41,160,76
9760,0.28613,0.31763,0.94922,5,48,184,80
9780,-0.13379,-0.36548,0.96753,5,48,184,80
9800,0.12451,-0.29541,1.0527,5,48,184,80
9820,-0.04883,-0.44287,0.93774,5,48,184,80
9840,0.03809,-0.39477,0.9602,5,48,184,80
9860,-0.03809,-0.43433,0.94702,5,48,184,80
9880,0.021,-0.37646,0.97803,5,48,184,80
9900,-0.13379,-0.4204100000000001,0.93408,5,48,184,80
9920,0.21191,0.28418,0.96362,5,48,184,80
9940,0.16724,0.37695,0.93677,5,48,184,80
9960,-0.15137,-0.36645,1.0566,5,48,184,80
9980,-0.2456,-0.46338,0.8823200000000001,5,48,184,80
10000,-0.03589,-0.4314,0.94873,5,48,184,80
10020,-0.07593,-0.4646,0.94458,5,48,184,80
10040,0.31689,0.18506,0.97192,5,48,184,80
10060,-0.20727,-0.40112,0.9458,5,48,184,80
10080,0.32251,0.38232,0.88794,5,48,184,80
10100,0.17017,0.36768,0.9458,5,48,184,80
10120,-0.17651,-0.40479,0.94409,5,48,184,80
10140,0.26904,0.1731,0.98804,5,48,184,80
10160,-0.0861799999999999,-0.38916,0.96948,5,48,184,80
10180,0.0376,-0.41626,0.9519,5,48,184,80
10200,0.32544,0.36011,0.91235,5,48,184,80
10220,-0.04761,-0.43018,0.94336,5,48,184,80
10240,-0.17651,-0.40771,0.94775,5,48,184,80
10260,0.17261,0.35498,0.95117,5,48,184,80
10280,0.36499,0.21435,0.94214,5,48,184,80
10300,0.2019,0.31592,0.97827,5,48,184,80
10320,-0.06811,-0.44482,0.93677,5,48,184,80
10340,-0.02148,-0.43164,0.93726,5,48,184,80
10360,-0.1626,-0.45215,0.90625,5,48,184,80
10380,0.32007,0.3147,0.92383,5,48,184,80
10400,0.01269,-0.38623,0.97192,5,48,184,80
10420,0.05469,0.14111,1.0266,5,48,184,80
10440,-0.05689,-0.4187,0.94214,5,48,184,80
10460,0.02466,-0.3977,0.97412,5,48,184,80
10480,0.28638,0.27564,0.94531,5,48,184,80
10500,-0.1704099999999999,-0.40967,0.9353,5,48,184,80
10520,-0.04614,-0.40112,0.96997,5,48,184,80
10540,-0.15112,-0.4231,0.94775,5,48,184,80
10560,-0.21265,-0.38403,0.91943,5,48,184,80
10580,0.26807,0.18335,0.96924,5,48,184,80
10600,0.09521,-0.28223,0.99951,5,48,184,80
10620,0.27661,0.14697,0.99243,5,48,184,80
10640,-0.1652799999999999,-0.4558100000000001,0.9563,5,48,184,80
10660,-0.19629,-0.47363,0.90747,5,48,184,80
10680,0.05029,-0.37012,0.97607,5,48,184,80
10700,0.30689,0.36621,0.9006299999999999,5,48,184,80
10720,-0.19629,-0.47363,0.90747,5,48,184,80
10740,-0.15137,-0.38086,0.95532,5,48,184,80
10760,0.20654,0.28686,0.9751,5,48,184,80
10780,0.21997,0.09985,1.0034,5,48,184,80
10800,0.18408,0.34717,0.95386,5,48,184,80
10820,0.13843,0.28442,0.96338,5,48,184,80
10840,-0.16089,-0.45508,0.91602,5,48,184,80
10860,-0.02417,-0.4350600000000001,0.9458,5,48,184,80
10880,-0.23926,-0.43433,0.8825700000000001,5,48,184,80
10900,-0.13037,-0.42749,0.93164,5,48,184,80
10920,-0.21777,-0.47144,0.90503,5,48,184,80
10940,0.3335,0.31811,0.92114,5,48,184,80
10960,0.16235,0.35864,0.94678,5,48,184,80
10980,0.19043,0.38818,0.93433,5,48,184,80
11000,0.04004,-0.35156,0.97217,5,48,184,80
11020,0.1704099999999999,0.34448,0.95996,5,48,184,80
11040,0.12769,0.2915,0.96289,5,48,184,80
11060,-0.24829,-0.49145,0.93384,5,48,184,80
11080,-0.28784,-0.50464,0.75781,5,48,184,80
11100,0.18384,0.26001,1.0002,5,48,184,80
11120,0.00586,-0.30469,0.99097,5,48,184,80
11140,-0.16333,-0.4502,0.90796,5,48,184,80
11160,0.28101,0.17456,0.98096,5,48,184,80
11180,0.16211,0.32739,0.94995,5,48,184,80
11200,0.22485,0.33545,0.95117,5,48,184,80
11220,-0.04346,-0.42114,0.94971,5,48,184,80
11240,0.18091,0.36352,0.94214,5,48,184,80
11260,0.021,-0.40869,0.95996,5,48,184,80
11280,0.26465,0.1919,0.98608,5,48,184,80
11300,0.31128,0.28931,0.93652,5,48,184,80
11320,0.25342,0.19605,0.94605,5,48,184,80
11340,0.3064,0.2937,0.94898,5,48,184,80
11360,0.27051,0.28613,0.9519,5,48,184,80
11380,-0.00049,-0.38745,0.96045,5,48,184,80
11400,0.03296,-0.38257,0.97192,5,48,184,80
11420,0.0249,-0.39331,0.94995,5,48,184,80
11440,-0.18066,-0.5161100000000001,0.85083,5,48,184,80
11460,0.12915,0.37183,0.92065,5,48,184,80
11480,-0.04028,-0.44922,0.94995,5,48,184,80
11500,0.2041,0.34839,0.94141,5,48,184,80
11520,0.30273,0.15161,0.97705,5,48,184,80
11540,-0.15625,-0.39868,0.95215,5,48,184,80
11560,-0.1604,-0.44214,0.92676,5,48,184,80
11580,0.3147,0.30127,0.93774,5,48,184,80
11600,-0.05664,-0.4397,0.93188,5,48,184,80
11620,-0.26929,-0.48071,0.8798799999999999,5,48,184,80
11640,-0.15674,-0.45532,0.91773,5,48,184,80
11660,-0.25146,-0.40112,0.9292,5,48,184,80
11680,0.36548,0.28735,0.90601,5,48,184,80
11700,0.37964,0.13355,0.96655,5,48,184,80
11720,-0.14795,-0.38403,0.93628,5,48,184,80
11740,0.00073,-0.39233,0.96753,5,48,184,80
11760,-0.16504,-0.44482,0.92017,5,48,184,80
11780,0.26831,0.16943,0.98291,5,48,184,80
11800,0.19043,0.32007,0.9353,5,48,184,80
11820,0.02295,-0.36157,0.97998,5,48,184,80
11840,-0.06641,-0.42993,0.93823,5,48,184,80
11860,0.19946,0.27759,0.97876,5,48,184,80
11880,0.00195,-0.37573,0.97803,5,48,184,80
11900,-0.05444,-0.43774,0.92383,5,48,184,80
11920,-0.02295,-0.43481,0.94458,5,48,184,80
11940,-0.13135,-0.37622,0.96045,5,48,184,80
11960,0.16724,0.35718,0.95337,5,48,184,80
11980,-0.18115,-0.4489800000000001,0.9104,5,48,184,80
12000,-0.13257,-0.3728,0.96728,5,48,184,80
12020,-0.13184,-0.34766,0.96753,6,47,183,50
12040,0.09521,-0.28223,0.99951,6,47,183,50
12060,0.21313,0.33618,0.94946,6,47,183,50
12080,-0.30493,-0.44873,0.8579100000000001,6,47,183,50
12100,0.18774,0.33057,0.96338,6,47,183,50
12120,0.29346,0.29102,0.95142,6,47,183,50
12140,0.20532,0.26489,0.9624,6,47,183,50
12160,0.15503,0.37256,0.94946,6,47,183,50
12180,-0.14819,-0.42505,0.93359,6,47,183,50
12200,-0.16724,-0.42993,0.92529,6,47,183,50
12220,0.20166,0.35645,0.93603,6,47,183,50
12240,-0.18823,-0.40405,0.94873,6,47,183,50
12260,-0.16821,-0.39575,0.94629,6,47,183,50
12280,0.01978,-0.35449,0.98657,6,47,183,50
12300,0.04834,-0.39844,0.96387,6,47,183,50
12320,0.37891,0.23438,0.95044,6,47,183,50
12340,-0.21606,-0.40454,0.92993,6,47,183,50
12360,-0.16357,-0.40601,0.93994,6,47,183,50
12380,0.35889,0.1342799999999999,0.94775,6,47,183,50
12400,0.01807,-0.39282,0.96338,6,47,183,50
12420,0.32031,0.27441,0.9436,6,47,183,50
12440,0.29175,0.13648,1.043,6,47,183,50
12460,-0.28784,-0.50464,0.75781,6,47,183,50
12480,0.27197,0.18506,0.9873,6,47,183,50
12500,-0.16235,-0.41089,0.94043,6,47,183,50
12520,-0.05322,-0.44751,0.94702,6,47,183,50
12540,0.19385,0.3523,0.94507,6,47,183,50
12560,-0.06885,-0.51343,0.93384,6,47,183,50
12580,-0.11865,-0.42407,0.93945,6,47,183,50
12600,0.01196,-0.37988,0.94995,6,47,183,50
12620,-0.1919,-0.4331100000000001,0.93799,6,47,183,50
12640,0.12842,0.38379,0.94263,6,47,183,50
12660,0.03418,-0.39673,0.96533,6,47,183,50
12680,-0.1731,-0.40356,0.9375,6,47,183,50
12700,-0.29883,-0.40942,0.89697,6,47,183,50
12720,0.38306,0.11084,0.9834,6,47,183,50
12740,-0.1655299999999999,-0.39966,0.9331,6,47,183,50
12760,0.03711,-0.38672,0.9668,6,47,183,50
12780,0.30762,0.26196,0.95435,6,47,183,50
12800,-0.1748,-0.40186,0.93018,6,47,183,50
12820,-0.08984,-0.42017,0.94214,6,47,183,50
12840,0.27783,0.17139,0.99927,6,47,183,50
12860,0.30566,0.28442,0.92212,6,47,183,50
12880,0.3208,0.31641,0.93408,6,47,183,50
12900,0.04199,-0.39307,0.95972,6,47,183,50
12920,0.19141,0.35303,0.94434,6,47,183,50
12940,-0.13184,-0.4231,0.93408,6,47,183,50
12960,0.17432,0.34473,0.95068,6,47,183,50
12980,0.38379,0.11133,0.95801,6,47,183,50
13000,0.17432,0.22046,1.0007,6,47,183,50
13020,0.09106,-0.26025,1.0127,6,47,183,50
13040,0.00806,-0.38843,0.96924,6,47,183,50
13060,0.02905,-0.39477,0.97583,6,47,183,50
13080,0.28394,0.16992,0.98779,6,47,183,50
13100,0.0376,-0.35156,0.98413,6,47,183,50
13120,0.35889,0.26245,0.94434,6,47,183,50
13140,-0.22803,-0.42725,0.83594,6,47,183,50
13160,-0.1704099999999999,-0.41138,0.95068,6,47,183,50
13180,-0.33862,-0.4585,0.86572,6,47,183,50
13200,0.00146,-0.33301,0.98608,6,47,183,50
13220,0.07544,-0.37573,0.9502,6,47,183,50
13240,-0.1831,-0.45459,0.9006299999999999,6,47,183,50
13260,0.05542,-0.41992,0.93262,6,47,183,50
13280,-0.15796,-0.46118,0.8989299999999999,6,47,183,50
13300,0.19043,0.32007,0.9353,6,47,183,50
13320,-0.15381,-0.39526,0.92773,6,47,183,50
13340,-0.27612,-0.46216,0.89697,6,47,183,50
13360,0.31274,0.26025,0.95581,6,47,183,50
13380,0.00073,-0.38403,0.96094,6,47,183,50
13400,-0.1787099999999999,-0.4643600000000001,0.9006299999999999,6,47,183,50
13420,0.23023,0.36597,0.92798,6,47,183,50
13440,-0.06128,-0.43189,0.95142,6,47,183,50
13460,-0.18408,-0.39868,0.91138,6,47,183,50
13480,-0.18042,-0.40601,0.94385,6,47,183,50
13500,0.27954,0.2002,0.9895,6,47,183,50
13520,0.20972,0.33374,0.94971,6,47,183,50
13540,0.38599,0.1499,0.98706,6,47,183,50
13560,0.36548,0.21362,0.94849,6,47,183,50
13580,0.34546,0.32959,0.9104,6,47,183,50
13600,0.30884,0.3010199999999999,0.92944,6,47,183,50
13620,-0.0437,-0.4021,0.97095,6,47,183,50
13640,0.29858,0.13501,0.97583,6,47,183,50
13660,-0.1789599999999999,-0.41016,0.9331,6,47,183,50
13680,0.14795,0.16992,0.9939,6,47,183,50
13700,0.3229999999999999,0.31396,0.92554,6,47,183,50
13720,0.02808,-0.38184,0.95752,6,47,183,50
13740,-0.02222,-0.43994,0.94043,6,47,183,50
13760,-0.12695,-0.2898,0.9812,6,47,183,50
13780,0.37598,0.21094,0.89404,6,47,183,50
13800,0.30249,0.29541,0.95752,6,47,183,50
13820,-0.15845,-0.42578,0.93945,6,47,183,50
13840,-0.19727,-0.40942,0.92822,6,47,183,50
13860,0.32593,0.33496,0.93506,6,47,183,50
13880,-0.1391599999999999,-0.427,0.93384,6,47,183,50
13900,0.0139199999999999,-0.35352,0.98267,6,47,183,50
13920,0.17432,0.22046,1.0007,6,47,183,50
13940,-0.16992,-0.40039,0.95093,6,47,183,50
13960,0.26294,0.18286,1.0017,6,47,183,50
13980,0.00488,-0.38965,0.96094,6,47,183,50
14000,-0.04346,-0.43091,0.93848,6,47,183,50
14020,0.18872,0.33472,0.97363,6,47,183,50
14040,0.31738,0.37549,0.90381,6,47,183,50
14060,-0.1582,-0.33691,0.98584,6,47,183,50
14080,0.26245,0.17261,0.99072,6,47,183,50
14100,0.28174,0.30176,0.948,6,47,183,50
14120,0.16919,0.36645,0.94238,6,47,183,50
14140,-0.16211,-0.42285,0.92627,6,47,183,50
14160,-0.02075,-0.48438,1.0737,6,47,183,50
14180,-0.0136699999999999,-0.27832,1.0181,6,47,183,50
14200,0.02734,-0.37573,0.9707,6,47,183,50
14220,-0.19995,-0.47217,0.8925799999999999,6,47,183,50
14240,-0.16992,-0.3977,0.92822,6,47,183,50
14260,0.04517,-0.34961,0.97681,6,47,183,50
14280,-0.13013,-0.37256,0.97241,6,47,183,50
14300,0.12354,-0.26831,1.0095,6,47,183,50
14320,0.29858,0.35254,0.92139,6,47,183,50
14340,0.25928,0.06567,0.97363,6,47,183,50
14360,-0.20508,-0.43872,0.94043,6,47,183,50
14380,0.16211,0.34253,0.979,6,47,183,50
14400,-0.03857,-0.45239,0.9314,6,47,183,50
14420,-0.14087,-0.35181,0.97266,7,63,186,87
14440,-0.01953,-0.44019,0.94849,7,63,186,87
14460,0.38208,0.08911,0.9563,7,63,186,87
14480,0.02954,-0.38599,0.97461,7,63,186,87
14500,0.18286,0.36279,0.92822,7,63,186,87
14520,-0.17676,-0.3999,0.93579,7,63,186,87
14540,0.26904,0.17725,0.98804,7,63,186,87
14560,-0.02515,-0.43896,0.93335,7,63,186,87
14580,0.18359,0.3335,0.95703,7,63,186,87
14600,0.22241,0.30786,0.9541,7,63,186,87
14620,-0.1652799999999999,-0.3894,0.94434,7,63,186,87
14640,0.3186,0.32544,0.92895,7,63,186,87
14660,0.03516,-0.3811,0.97656,7,63,186,87
14680,0.10376,-0.35742,0.97095,7,63,186,87
14700,0.14185,0.23145,0.99634,7,63,186,87
14720,0.1655299999999999,0.37793,0.94312,7,63,186,87
14740,-0.05054,-0.40503,0.96606,7,63,186,87
14760,0.17602,0.34351,0.96411,7,63,186,87
14780,-0.04468,-0.42773,0.94653,7,63,186,87
14800,-0.15918,-0.38477,0.92749,7,63,186,87
14820,-0.14185,-0.40064,0.94775,7,63,186,87
14840,0.27686,0.18335,0.97485,7,63,186,87
14860,-0.24829,-0.49145,0.93384,7,63,186,87
14880,-0.17651,-0.40771,0.94775,7,63,186,87
14900,0.02441,-0.35278,0.9751,7,63,186,87
14920,-0.15527,-0.46387,0.90723,7,63,186,87
14940,0.32373,0.33398,0.91016,7,63,186,87
14960,-0.15112,-0.4231,0.94775,7,63,186,87
14980,0.27295,0.18115,0.98096,7,63,186,87
15000,-0.1789599999999999,-0.41431,0.96777,7,63,186,87
15020,0.28442,0.16968,0.98535,7,63,186,87
15040,-0.1687,-0.39648,0.94165,7,63,186,87
15060,-0.16577,-0.4502,0.91357,7,63,186,87
15080,-0.15723,-0.39185,0.94165,7,63,186,87
15100,0.04102,-0.41553,0.92139,7,63,186,87
15120,0.18628,0.34106,0.94946,7,63,186,87
15140,0.37085,0.21191,0.9436,7,63,186,87
15160,-0.05151,-0.42529,0.93262,7,63,186,87
15180,0.1787099999999999,0.38452,0.96191,7,63,186,87
15200,0.03882,-0.34204,0.99365,7,63,186,87
15220,0.03296,-0.38843,0.97095,7,63,186,87
15240,-0.18994,-0.40649,0.93921,7,63,186,87
15260,-0.08667,-0.4643600000000001,0.94507,7,63,186,87
15280,0.17651,0.33203,0.94849,7,63,186,87
15300,-0.0625,-0.4497100000000001,0.92822,7,63,186,87
15320,-0.18164,-0.40747,0.93481,7,63,186,87
15340,-0.20166,-0.46997,0.91431,7,63,186,87
15360,0.30811,0.34229,0.92749,7,63,186,87
15380,0.29907,0.19898,0.97583,7,63,186,87
15400,0.20947,0.30298,0.95581,7,63,186,87
15420,-0.18701,-0.41016,0.92944,7,63,186,87
15440,-0.02173,-0.43262,0.96948,7,63,186,87
15460,-0.18018,-0.46338,0.91089,7,63,186,87
15480,0.00757,-0.38843,0.96948,7,63,186,87
15500,0.14477,0.28052,0.99145,7,63,186,87
15520,0.02051,-0.35352,0.98584,7,63,186,87
15540,0.00098,-0.39331,0.98682,7,63,186,87
15560,-0.2395,-0.44067,0.90942,7,63,186,87
15580,-0.06274,-0.4436,0.94653,7,63,186,87
15600,0.37231,0.14917,0.92944,7,63,186,87
15620,0.1655299999999999,0.32739,0.98828,7,63,186,87
15640,0.20215,0.35889,0.93994,7,63,186,87
15660,-0.02124,-0.37671,1.0183,7,63,186,87
15680,0.38892,0.18237,0.91797,7,63,186,87
15700,0.15234,0.43335,0.90161,7,63,186,87
15720,-0.04492,-0.40845,0.9375,7,63,186,87
15740,-0.18018,-0.40601,0.92895,7,63,186,87
15760,0.28686,0.177,0.98315,7,63,186,87
15780,0.36328,0.20435,0.94605,7,63,186,87
15800,-0.15674,-0.4209,0.93335,7,63,186,87
15820,0.06445,-0.36133,0.95752,7,63,186,87
15840,-0.18188,-0.45142,0.91943,7,63,186,87
15860,0.20166,0.24805,0.98438,7,63,186,87
15880,0.0751899999999999,-0.37915,0.96411,7,63,186,87
15900,0.1640599999999999,0.32983,0.95386,7,63,186,87
15920,-0.18945,-0.4204100000000001,0.93921,7,63,186,87
15940,0.0564,-0.33862,0.96509,7,63,186,87
15960,0.03979,-0.3855,0.97485,7,63,186,87
15980,-0.04981,-0.42554,0.95654,7,63,186,87
16000,0.31445,0.28442,0.94214,7,63,186,87
16020,0.04077,-0.38574,0.96777,7,63,186,87
16040,0.3689,0.13379,0.96558,7,63,186,87
16060,-0.16919,-0.38525,0.94751,7,63,186,87
16080,-0.1557599999999999,-0.46777,0.90332,7,63,186,87
16100,-0.15552,-0.40625,0.93726,7,63,186,87
16120,-0.27954,-0.47388,0.8784200000000001,7,63,186,87
16140,0.31738,0.29395,0.94287,7,63,186,87
16160,-0.02173,-0.40649,0.92798,7,63,186,87
16180,0.31885,0.28955,0.94214,7,63,186,87
16200,0.23193,0.25708,0.97437,7,63,186,87
16220,0.37622,0.21606,0.94287,7,63,186,87
16240,0.20727,0.25317,0.97949,7,63,186,87
16260,-0.02295,-0.43896,0.94751,7,63,186,87
16280,-0.00635,-0.38745,0.97876,7,63,186,87
16300,0.33838,0.34375,0.90869,7,63,186,87
16320,0.03833,-0.38989,0.96631,7,63,186,87
16340,0.33643,0.18115,0.95044,7,63,186,87
16360,0.19434,0.3335,0.95679,7,63,186,87
16380,0.3125,0.39087,0.8925799999999999,7,63,186,87
16400,0.26392,0.17578,0.99536,7,63,186,87
16420,0.33081,0.34741,0.92407,7,63,186,87
16440,-0.04394,-0.41919,0.94629,7,63,186,87
16460,-0.0061,-0.38916,0.95679,7,63,186,87
16480,-0.09155,-0.42602,0.95093,7,63,186,87
16500,-0.14819,-0.42505,0.93359,7,63,186,87
16520,-0.06909,-0.47607,0.94385,7,63,186,87
16540,-0.03247,-0.43237,0.94678,7,63,186,87
16560,0.02832,-0.36865,0.96606,7,63,186,87
16580,-0.12378,-0.37256,0.94971,7,63,186,87
16600,-0.22803,-0.42725,0.83594,7,63,186,87
16620,0.10474,-0.25269,0.99683,7,63,186,87
16640,0.0918,-0.24463,1.019,8,23,175,57
16660,0.01318,-0.36011,0.97388,8,23,175,57
16680,0.21924,0.3229999999999999,0.92969,8,23,175,57
16700,0.30859,0.28076,0.94824,8,23,175,57
16720,0.27295,0.1853,0.98804,8,23,175,57
16740,-0.12866,-0.34229,0.95898,8,23,175,57
16760,0.26392,0.19043,0.98193,8,23,175,57
16780,0.3125,0.29736,0.92383,8,23,175,57
16800,0.20142,0.35669,0.94946,8,23,175,57
16820,0.02588,-0.40112,0.95825,8,23,175,57
16840,0.00269,-0.37964,0.97217,8,23,175,57
16860,0.04248,-0.3374,0.96997,8,23,175,57
16880,-0.1735799999999999,-0.41357,0.94067,8,23,175,57
16900,0.30249,0.33496,0.9353,8,23,175,57
16920,0.25415,0.19922,0.99976,8,23,175,57
16940,0.01025,-0.27588,1.0173,8,23,175,57
16960,-0.1640599999999999,-0.3811,0.93677,8,23,175,57
16980,-0.25879,-0.4184600000000001,0.93213,8,23,175,57
17000,-0.03662,-0.42163,0.94116,8,23,175,57
17020,-0.1958,-0.42114,0.91919,8,23,175,57
17040,0.00269,-0.44751,0.93018,8,23,175,57
17060,0.31958,0.29053,0.93433,8,23,175,57
17080,-0.06103,-0.42871,0.94727,8,23,175,57
17100,-0.20044,-0.39917,0.94824,8,23,175,57
17120,-0.18921,-0.38379,0.95435,8,23,175,57
17140,0.17334,0.36499,0.95166,8,23,175,57
17160,0.30762,0.27637,0.94141,8,23,175,57
17180,-0.04663,-0.4184600000000001,0.94873,8,23,175,57
17200,-0.0156199999999999,-0.43896,0.93457,8,23,175,57
17220,0.04712,-0.42017,0.95581,8,23,175,57
17240,0.20142,0.22803,0.98096,8,23,175,57
17260,0.30811,0.37598,0.90991,8,23,175,57
17280,0.3125,0.30029,0.94605,8,23,175,57
17300,0.13379,0.28857,0.96875,8,23,175,57
17320,0.02344,-0.40137,0.95288,8,23,175,57
17340,0.18433,0.32935,0.95386,8,23,175,57
17360,-0.08911,-0.37573,0.96606,8,23,175,57
17380,0.17602,0.35913,0.95264,8,23,175,57
17400,0.38867,0.15332,0.96045,8,23,175,57
17420,0.28809,0.16992,0.91797,8,23,175,57
17440,0.3396,0.37524,0.8986799999999999,8,23,175,57
17460,-0.0459,-0.44653,0.92773,8,23,175,57
17480,-0.15234,-0.41284,0.95068,8,23,175,57
17500,0.00684,-0.37427,0.97217,8,23,175,57
17520,0.37085,0.21191,0.9436,8,23,175,57
17540,0.29102,0.24829,0.94849,8,23,175,57
17560,0.27148,0.18457,0.9773,8,23,175,57
17580,-0.06128,-0.43189,0.95142,8,23,175,57
17600,0.03589,-0.35327,0.96924,8,23,175,57
17620,-0.15552,-0.4148,0.93164,8,23,175,57
17640,0.27197,0.19067,0.97168,8,23,175,57
17660,-0.19141,-0.40454,0.92676,8,23,175,57
17680,0.36352,0.16016,0.93994,8,23,175,57
17700,-0.13257,-0.375,0.9331,8,23,175,57
17720,0.03491,-0.37573,0.95557,8,23,175,57
17740,0.00269,-0.37964,0.97217,8,23,175,57
17760,-0.00635,-0.37451,0.93066,8,23,175,57
17780,0.31494,0.35205,0.91699,8,23,175,57
17800,-0.06274,-0.4519,0.93823,8,23,175,57
17820,0.17554,0.3208,0.95679,8,23,175,57
17840,0.27246,0.1853,0.99048,8,23,175,57
17860,-0.1643099999999999,-0.42871,0.92236,8,23,175,57
17880,-0.20532,-0.47095,0.8652299999999999,8,23,175,57
17900,-0.13452,-0.43091,0.79175,8,23,175,57
17920,0.31519,0.32495,0.92602,8,23,175,57
17940,-0.1665,-0.39746,0.93091,8,23,175,57
17960,0.25879,0.1640599999999999,0.98657,8,23,175,57
17980,0.01758,-0.39502,0.98242,8,23,175,57
18000,0.19019,0.43262,0.9248,8,23,175,57
18020,-0.05444,-0.39404,0.96338,8,23,175,57
18040,0.1648,0.33862,0.95337,8,23,175,57
18060,-0.125,-0.37061,0.96191,8,23,175,57
18080,0.20654,0.2876,0.96851,8,23,175,57
18100,-0.23755,-0.40747,0.93359,8,23,175,57
18120,0.21362,0.30225,0.96851,8,23,175,57
18140,0.04907,-0.40674,0.97681,8,23,175,57
18160,0.29468,0.15332,0.98828,8,23,175,57
18180,-0.18945,-0.39819,0.94482,8,23,175,57
18200,-0.17847,-0.44678,0.91382,8,23,175,57
18220,-0.13257,-0.375,0.9331,8,23,175,57
18240,-0.04785,-0.4375,0.93677,8,23,175,57
18260,0.02954,-0.36475,0.96509,8,23,175,57
18280,0.20361,0.27808,0.97485,8,23,175,57
18300,-0.0686,-0.42334,0.95752,8,23,175,57
18320,-0.01758,-0.33765,0.96899,8,23,175,57
18340,0.0249,-0.27319,1.0076,8,23,175,57
18360,-0.03589,-0.4314,0.94556,8,23,175,57
18380,-0.19141,-0.44629,0.92383,8,23,175,57
18400,0.17163,0.3689,0.93457,8,23,175,57
18420,0.02612,-0.39331,0.98096,8,23,175,57
18440,0.36816,0.13208,0.93286,8,23,175,57
18460,0.01269,-0.38623,0.97192,8,23,175,57
18480,0.28418,0.17944,0.9541,8,23,175,57
18500,-0.14111,-0.42847,0.93066,8,23,175,57
18520,0.26001,0.17432,0.98877,8,23,175,57
18540,0.06616,-0.23047,1.0042,8,23,175,57
18560,-0.146,-0.40088,0.9458,8,23,175,57
18580,0.37061,0.21435,0.94043,8,23,175,57
18600,-0.19922,-0.42529,0.9541,8,23,175,57
18620,0.0293,-0.38061,0.97583,8,23,175,57
18640,0.30225,0.33179,0.91943,8,23,175,57
18660,0.01489,-0.42969,0.93921,8,23,175,57
18680,0.0227,-0.4248,0.96216,8,23,175,57
18700,0.28564,0.1792,0.98901,8,23,175,57
18720,0.28174,0.30176,0.948,8,23,175,57
18740,-0.17969,-0.48145,0.9006299999999999,8,23,175,57
18760,-0.19116,-0.45044,0.8999,8,23,175,57
18780,0.20117,0.2666,0.97681,8,23,175,57
18800,0.26221,0.17578,0.99121,8,23,175,57
18820,-0.15747,-0.45972,0.89917,8,23,175,57
18840,0.19702,0.27759,0.97095,8,23,175,57
18860,0.2041,0.34717,0.95142,8,23,175,57
18880,0.04028,-0.40015,0.97192,9,55,187,101
18900,-0.00342,-0.38306,0.97461,9,55,187,101
18920,0.17627,0.35718,0.94946,9,55,187,101
18940,0.09033,-0.24438,0.99609,9,55,187,101
18960,-0.01953,-0.44019,0.94849,9,55,187,101
18980,0.0542,-0.36963,0.97461,9,55,187,101
19000,0.31885,0.34375,0.91065,9,55,187,101
19020,0.09448,-0.23779,1.0217,9,55,187,101
19040,-0.00195,-0.37988,0.96435,9,55,187,101
19060,0.19678,0.35718,0.94482,9,55,187,101
19080,-0.01587,-0.43384,0.94287,9,55,187,101
19100,0.12915,0.27856,0.97144,9,55,187,101
19120,-0.03101,-0.43481,0.94141,9,55,187,101
19140,-0.18091,-0.3938,0.92554,9,55,187,101
19160,0.1377,0.33374,0.96118,9,55,187,101
19180,0.18213,0.36328,0.94482,9,55,187,101
19200,0.27564,0.18359,0.97388,9,55,187,101
19220,-0.05957,-0.42065,0.94434,9,55,187,101
19240,-0.1936,-0.4707,0.90185,9,55,187,101
19260,0.19629,0.33496,0.95386,9,55,187,101
19280,-0.21533,-0.4751,0.8938,9,55,187,101
19300,-0.03076,-0.43774,0.91406,9,55,187,101
19320,-0.17773,-0.47827,0.91235,9,55,187,101
19340,0.19995,0.30078,0.96411,9,55,187,101
19360,0.1604,0.35083,0.93066,9,55,187,101
19380,-0.16187,-0.48804,0.89795,9,55,187,101
19400,-0.23315,-0.4204100000000001,0.92602,9,55,187,101
19420,0.177,0.36865,0.94678,9,55,187,101
19440,-0.20801,-0.38916,0.94629,9,55,187,101
19460,0.31445,0.28662,0.93774,9,55,187,101
19480,0.0166,-0.38061,0.98657,9,55,187,101
19500,0.04394,-0.3269,0.97485,9,55,187,101
19520,-0.177,-0.48267,0.9148,9,55,187,101
19540,-0.20874,-0.38745,0.92383,9,55,187,101
19560,0.04004,-0.35156,0.97217,9,55,187,101
19580,0.32446,0.37573,0.8999,9,55,187,101
19600,0.21924,0.23486,0.97168,9,55,187,101
19620,0.35718,0.23071,0.94653,9,55,187,101
19640,0.26294,0.17261,0.97852,9,55,187,101
19660,-0.14526,-0.42676,0.93286,9,55,187,101
19680,-0.28662,-0.3606,0.96631,9,55,187,101
19700,0.36841,0.20874,0.95288,9,55,187,101
19720,-0.16919,-0.42358,0.9231,9,55,187,101
19740,0.21338,0.36304,0.93481,9,55,187,101
19760,0.02637,-0.39624,0.96631,9,55,187,101
19780,-0.06103,-0.45288,0.95483,9,55,187,101
19800,0.21021,0.37744,0.93677,9,55,187,101
19820,0.17529,0.37256,0.94116,9,55,187,101
19840,-0.16211,-0.41113,0.93457,9,55,187,101
19860,0.17822,0.34595,0.94702,9,55,187,101
19880,0.0332,-0.37134,0.95752,9,55,187,101
19900,-0.05835,-0.44385,0.92798,9,55,187,101
19920,-0.12793,-0.38501,0.94482,9,55,187,101
19940,0.00879,-0.41675,0.9331,9,55,187,101
19960,-0.15918,-0.38477,0.92749,9,55,187,101
19980,0.0227,-0.23877,0.97315,9,55,187,101
20000,0.19605,0.35034,0.94702,9,55,187,101
20020,-0.01196,-0.37402,0.96728,9,55,187,101
20040,0.31226,0.29248,0.94385,9,55,187,101
20060,0.32886,0.27466,0.93506,9,55,187,101
20080,-0.15869,-0.24512,0.9917,9,55,187,101
20100,-0.01709,-0.43628,0.93457,9,55,187,101
20120,0.35864,0.10449,1.0024,9,55,187,101
20140,-0.0144,-0.33643,0.98071,9,55,187,101
20160,0.20142,0.40649,0.927,9,55,187,101
20180,0.18042,0.34985,0.94116,9,55,187,101
20200,-0.12842,-0.43726,0.95313,9,55,187,101
20220,0.3010199999999999,0.28686,0.94385,9,55,187,101
20240,0.16821,0.21606,1.0032,9,55,187,101
20260,0.02954,-0.38061,0.96313,9,55,187,101
20280,0.31934,0.38867,0.9003899999999999,9,55,187,101
20300,-0.0549299999999999,-0.38892,0.94775,9,55,187,101
20320,0.02564,-0.40967,0.96191,9,55,187,101
20340,-0.16577,-0.41016,0.95532,9,55,187,101
20360,-0.13794,-0.37402,0.96191,9,55,187,101
20380,0.03491,-0.40039,0.94873,9,55,187,101
20400,0.37842,0.13037,0.9314,9,55,187,101
20420,0.18433,0.34814,0.95605,9,55,187,101
20440,0.27148,0.16968,0.97974,9,55,187,101
20460,-0.18726,-0.41309,0.96265,9,55,187,101
20480,-0.04468,-0.43213,0.94336,9,55,187,101
20500,0.30395,0.2793,0.97046,9,55,187,101
20520,0.32324,0.32373,0.93213,9,55,187,101
20540,-0.198,-0.45215,0.8867200000000001,9,55,187,101
20560,0.1521,0.40259,0.92578,9,55,187,101
20580,0.01148,-0.39136,0.95972,9,55,187,101
20600,-0.28345,-0.44824,0.90356,9,55,187,101
20620,-0.15137,-0.36645,1.0566,9,55,187,101
20640,0.18945,0.2915,0.96533,9,55,187,101
20660,0.17529,0.34741,0.96313,9,55,187,101
20680,-0.01929,-0.43896,0.94702,9,55,187,101
20700,0.26489,0.18945,0.98267,9,55,187,101
20720,0.31567,0.31006,0.9314,9,55,187,101
20740,-0.15698,-0.46094,0.88989,9,55,187,101
20760,0.34351,0.17139,0.96924,9,55,187,101
20780,-0.1831,-0.3999,0.94067,9,55,187,101
20800,-0.04394,-0.41357,0.95215,9,55,187,101
20820,-0.18481,-0.40064,0.9502,9,55,187,101
20840,0.16675,0.36816,0.94995,9,55,187,101
20860,-0.09985,-0.38892,0.948,9,55,187,101
20880,0.36719,0.20581,0.9519,9,55,187,101
20900,0.27515,0.18604,0.98852,9,55,187,101
20920,0.21558,0.32349,0.97437,9,55,187,101
20940,0.3584,0.26904,0.93652,9,55,187,101
20960,-0.15063,-0.40479,0.93408,9,55,187,101
20980,-0.06079,-0.45532,0.94019,9,55,187,101
21000,-0.0271,-0.36377,0.98999,9,55,187,101
21020,0.33276,0.2417,0.92749,9,55,187,101
21040,-0.0769,-0.40161,0.96411,9,55,187,101
21060,0.27881,0.16309,0.98242,9,55,187,101
21080,-0.18384,-0.38818,0.93237,9,55,187,101
21100,-0.02148,-0.35864,1.0002,9,55,187,101
21120,0.17944,0.33545,0.95776,9,55,187,101
21140,-0.03052,-0.43481,0.94507,9,55,187,101
21160,-0.01001,-0.23291,1.0076,9,55,187,101
21180,0.02515,-0.38916,0.96826,9,55,187,101
21200,-0.19336,-0.49731,0.87476,9,55,187,101
21220,-0.05078,-0.43604,0.93799,9,55,187,101
21240,0.30713,0.2898,0.94507,9,55,187,101
21260,-0.17725,-0.41504,0.94214,9,55,187,101
21280,0.05127,-0.33276,0.96973,9,55,187,101
21300,0.27197,0.19067,0.97168,9,55,187,101
21320,0.22607,0.28711,0.96045,9,55,187,101
21340,0.15503,0.34741,0.95532,9,55,187,101
21360,-0.16895,-0.4956100000000001,0.88989,9,55,187,101
21380,0.33618,0.24805,0.94214,9,55,187,101
21400,0.37085,0.13989,0.96387,9,55,187,101
21420,0.31201,0.32935,0.91748,9,55,187,101
21440,-0.03491,-0.44385,0.94751,9,55,187,101
21460,-0.15039,-0.46362,0.91504,9,55,187,101
21480,0.021,-0.35718,0.96435,9,55,187,101
21500,-0.20581,-0.44678,0.90869,9,55,187,101
21520,0.28662,0.17602,0.97754,9,55,187,101
21540,-0.14526,-0.34595,0.96606,9,55,187,101
21560,-0.23315,-0.46973,0.88892,9,55,187,101
21580,0.38867,0.15332,0.96045,10,23,177,75
21600,0.28369,0.17505,0.98438,10,23,177,75
21620,0.03686,-0.39014,0.96191,10,23,177,75
21640,-0.13037,-0.34814,0.96704,10,23,177,75
21660,-0.18945,-0.41797,0.93237,10,23,177,75
21680,0.00244,-0.31421,0.99414,10,23,177,75
21700,0.38721,0.177,0.9458,10,23,177,75
21720,-0.04321,-0.43115,0.95166,10,23,177,75
21740,-0.0551799999999999,-0.45557,0.91992,10,23,177,75
21760,0.02295,-0.38843,0.96777,10,23,177,75
21780,0.02515,-0.34229,0.97754,10,23,177,75
21800,0.00049,-0.37256,1.0066,10,23,177,75
21820,-0.00073,-0.37134,0.97632,10,23,177,75
21840,0.21997,0.34009,0.93506,10,23,177,75
21860,0.02564,-0.38745,0.95117,10,23,177,75
21880,0.24829,0.26563,0.97827,10,23,177,75
21900,0.09985,-0.24023,1.0081,10,23,177,75
21920,0.04102,-0.37646,0.98145,10,23,177,75
21940,0.26538,0.06348,1.0,10,23,177,75
21960,-0.12549,-0.37158,0.95557,10,23,177,75
21980,0.01245,-0.38867,0.98023,10,23,177,75
22000,0.32739,0.32373,0.91821,10,23,177,75
22020,-0.0156199999999999,-0.34741,0.99219,10,23,177,75
22040,-0.16821,-0.40576,0.9419,10,23,177,75
22060,-0.13648,-0.40332,0.93823,10,23,177,75
22080,-0.1377,-0.56445,0.9541,10,23,177,75
22100,-0.05981,-0.45264,0.94263,10,23,177,75
22120,0.36548,0.21362,0.94849,10,23,177,75
22140,0.02393,-0.40576,0.96435,10,23,177,75
22160,-0.03613,-0.42578,0.91724,10,23,177,75
22180,0.20264,0.37036,0.9375,10,23,177,75
22200,-0.16968,-0.39453,0.93359,10,23,177,75
22220,-0.13477,-0.42578,0.92529,10,23,177,75
22240,0.03686,-0.38525,0.94507,10,23,177,75
22260,-0.04468,-0.43213,0.94336,10,23,177,75
22280,0.31592,0.3229999999999999,0.92871,10,23,177,75
22300,-0.06299,-0.43286,0.93677,10,23,177,75
22320,-0.04614,-0.42261,0.94995,10,23,177,75
22340,-0.22046,-0.40869,0.92969,10,23,177,75
22360,0.03955,-0.36401,0.98242,10,23,177,75
22380,0.16748,0.33398,0.95874,10,23,177,75
22400,0.34497,0.34936,0.89307,10,23,177,75
22420,0.22412,0.10254,1.02,10,23,177,75
22440,0.26855,0.18872,0.97217,10,23,177,75
22460,0.26343,0.17432,0.98438,10,23,177,75
22480,-0.17236,-0.40649,0.94287,10,23,177,75
22500,0.17236,0.23169,0.98999,10,23,177,75
22520,-0.17969,-0.48633,0.89185,10,23,177,75
22540,0.03442,-0.40356,0.94824,10,23,177,75
22560,0.03467,-0.36352,0.979,10,23,177,75
22580,0.03345,-0.39893,0.96118,10,23,177,75
22600,0.36084,0.09497,0.98096,10,23,177,75
22620,-0.19995,-0.47339,0.8928200000000001,10,23,177,75
22640,-0.04614,-0.42261,0.94995,10,23,177,75
22660,0.19385,0.33716,0.9563,10,23,177,75
22680,-0.1787099999999999,-0.43335,0.92871,10,23,177,75
22700,-0.39282,-0.41309,0.86035,10,23,177,75
22720,-0.12964,-0.41821,0.95288,10,23,177,75
22740,-0.05054,-0.4165,0.94678,10,23,177,75
22760,0.30615,0.37134,0.91113,10,23,177,75
22780,-0.14429,-0.4184600000000001,0.91748,10,23,177,75
22800,0.17676,0.32715,0.95386,10,23,177,75
22820,0.26855,0.18799,0.98023,10,23,177,75
22840,-0.12891,-0.36743,0.95972,10,23,177,75
22860,-0.01196,-0.43359,0.92065,10,23,177,75
22880,0.21802,0.35156,0.948,10,23,177,75
22900,0.06201,-0.35693,0.9602,10,23,177,75
22920,0.31763,0.31226,0.92969,10,23,177,75
22940,0.17773,0.37085,0.94019,10,23,177,75
22960,-0.06201,-0.44434,0.94775,10,23,177,75
22980,0.05395,-0.38061,0.95703,10,23,177,75
23000,0.31836,0.30176,0.91821,10,23,177,75
23020,0.24707,0.1643099999999999,1.0042,10,23,177,75
23040,0.03174,-0.40576,0.95996,10,23,177,75
23060,-0.20825,-0.45679,0.91699,10,23,177,75
23080,-0.0864299999999999,-0.39282,0.96313,10,23,177,75
23100,0.33618,0.24805,0.94214,10,23,177,75
23120,0.01465,-0.38745,0.98584,10,23,177,75
23140,0.05005,-0.39429,0.96924,10,23,177,75
23160,-0.17114,-0.38379,0.94629,10,23,177,75
23180,0.01807,-0.37158,0.9856,10,23,177,75
23200,0.1897,0.3335,0.94287,10,23,177,75
23220,0.1748,0.36841,0.93823,10,23,177,75
23240,-0.03711,-0.4331100000000001,0.93164,10,23,177,75
23260,0.04394,-0.3457,0.97388,10,23,177,75
23280,-0.1377,-0.42017,0.9353,10,23,177,75
23300,-0.20117,-0.39111,0.92529,10,23,177,75
23320,0.40698,0.1709,0.98682,10,23,177,75
23340,0.23145,0.28564,0.9773,10,23,177,75
23360,-0.04004,-0.43164,0.94751,10,23,177,75
23380,0.30811,0.28882,0.94165,10,23,177,75
23400,0.11035,0.28223,1.0098,10,23,177,75
23420,0.18213,0.33423,0.95679,10,23,177,75
23440,-0.03857,-0.42676,0.95044,10,23,177,75
23460,0.01343,-0.37402,0.97022,10,23,177,75
23480,-0.16724,-0.39868,0.94434,10,23,177,75
23500,-0.05566,-0.42822,0.94214,10,23,177,75
23520,0.01782,-0.34106,0.99585,10,23,177,75
23540,0.04394,-0.37573,0.94824,10,23,177,75
23560,0.03418,-0.3562,0.98096,10,23,177,75
23580,0.29443,0.29346,0.94336,10,23,177,75
23600,0.22754,0.3772,0.92017,10,23,177,75
23620,-0.28345,-0.44824,0.90356,10,23,177,75
23640,-0.1919,-0.46094,0.92334,10,23,177,75
23660,0.3418,0.34546,0.92334,10,23,177,75
23680,0.17773,0.29395,0.98096,10,23,177,75
23700,-0.21826,-0.49145,0.90576,10,23,177,75
23720,0.30664,0.34424,0.90942,10,23,177,75
23740,-0.17554,-0.44141,0.92847,10,23,177,75
23760,0.20142,0.3645,0.93628,10,23,177,75
23780,-0.05395,-0.4314,0.94556,10,23,177,75
23800,0.30933,0.20825,0.93823,10,23,177,75
23820,0.04004,-0.22461,1.012,10,23,177,75
23840,-0.1652799999999999,-0.40479,0.93872,10,23,177,75
23860,0.01733,-0.354,0.97925,10,23,177,75
23880,0.30811,0.14136,0.97949,10,23,177,75
23900,0.20361,0.35205,0.9458,10,23,177,75
23920,-0.1853,-0.42017,0.92188,10,23,177,75
23940,-0.14331,-0.46069,0.91138,10,23,177,75
23960,-0.23096,-0.45654,0.8884299999999999,10,23,177,75
23980,0.02051,-0.36084,0.97925,10,23,177,75
24000,0.08325,-0.24341,1.0046,10,23,177,75
24020,0.17554,0.37036,0.93384,10,23,177,75
24040,-0.12842,-0.34912,0.96387,11,26,169,94
24060,0.0874,-0.2456,1.0122,11,26,169,94
24080,-0.08179,-0.46704,0.9209,11,26,169,94
24100,0.25269,0.1333,0.98413,11,26,169,94
24120,-0.00049,-0.38281,0.97632,11,26,169,94
24140,0.19751,0.35645,0.94482,11,26,169,94
24160,-0.04224,-0.43115,0.96191,11,26,169,94
24180,0.20239,0.33545,0.93579,11,26,169,94
24200,-0.18555,-0.50464,0.88525,11,26,169,94
24220,-0.1738299999999999,-0.40869,0.93384,11,26,169,94
24240,-0.1499,-0.39917,0.92676,11,26,169,94
24260,-0.06641,-0.45239,0.93481,11,26,169,94
24280,-0.18823,-0.4043,0.93335,11,26,169,94
24300,0.16162,0.37915,0.94702,11,26,169,94
24320,0.26416,0.16699,0.98267,11,26,169,94
24340,-0.16187,-0.46069,0.91162,11,26,169,94
24360,0.38818,0.10034,0.96973,11,26,169,94
24380,-0.03638,-0.44678,0.93652,11,26,169,94
24400,-0.02734,-0.35327,0.9668,11,26,169,94
24420,0.28101,0.17456,0.98096,11,26,169,94
24440,0.31396,0.26514,0.95239,11,26,169,94
24460,-0.17065,-0.4118600000000001,0.92676,11,26,169,94
24480,0.26514,0.177,0.9873,11,26,169,94
24500,0.37622,0.22192,0.9419,11,26,169,94
24520,0.03174,-0.37134,0.97363,11,26,169,94
24540,0.26538,0.18359,1.0083,11,26,169,94
24560,0.03418,-0.39038,0.96875,11,26,169,94
24580,-0.21191,-0.40771,0.94019,11,26,169,94
24600,-0.19922,-0.4829100000000001,0.8947700000000001,11,26,169,94
24620,0.01538,-0.35156,0.97266,11,26,169,94
24640,-0.07251,-0.40039,0.9541,11,26,169,94
24660,-0.1936,-0.44702,0.9209,11,26,169,94
24680,0.14209,-0.31787,0.91431,11,26,169,94
24700,0.15747,0.38965,0.91675,11,26,169,94
24720,0.26855,0.17676,0.98047,11,26,169,94
24740,0.25146,0.1626,0.98315,11,26,169,94
24760,0.29468,0.15796,0.98096,11,26,169,94
24780,0.01636,-0.35425,0.9834,11,26,169,94
24800,0.3977,0.12695,0.95923,11,26,169,94
24820,0.37793,0.14087,0.92895,11,26,169,94
24840,0.19336,0.34229,0.9541,11,26,169,94
24860,0.20483,0.28394,0.98657,11,26,169,94
24880,0.16968,0.34668,0.94556,11,26,169,94
24900,-0.05249,-0.43164,0.95801,11,26,169,94
24920,-0.22339,-0.35059,0.95581,11,26,169,94
24940,-0.1738299999999999,-0.42554,0.92505,11,26,169,94
24960,0.14185,0.23145,0.99634,11,26,169,94
24980,-0.05249,-0.42114,0.94141,11,26,169,94
25000,-0.18604,-0.40283,0.94336,11,26,169,94
25020,0.20972,0.3010199999999999,0.97095,11,26,169,94
25040,0.18555,0.29785,0.97046,11,26,169,94
25060,-0.12793,-0.42627,0.93628,11,26,169,94
25080,-0.1814,-0.47925,0.8894,11,26,169,94
25100,-0.18848,-0.4204100000000001,0.91992,11,26,169,94
25120,-0.18335,-0.40869,0.93359,11,26,169,94
25140,0.02539,-0.35107,0.98218,11,26,169,94
25160,0.16211,0.34253,0.979,11,26,169,94
25180,-0.0564,-0.44629,0.94067,11,26,169,94
25200,0.09717,-0.24121,1.0225,11,26,169,94
25220,-0.1709,-0.39404,0.94605,11,26,169,94
25240,-0.15967,-0.40015,0.95068,11,26,169,94
25260,-0.17407,-0.41162,0.93945,11,26,169,94
25280,0.24438,0.28809,0.95264,11,26,169,94
25300,-0.02246,-0.44019,0.93726,11,26,169,94
25320,0.0293,-0.3999,0.96875,11,26,169,94
25340,0.19556,0.3562,0.9419,11,26,169,94
25360,0.01148,-0.36816,0.97632,11,26,169,94
25380,0.02319,-0.3833,0.96265,11,26,169,94
25400,0.3186,0.29443,0.94214,11,26,169,94
25420,-0.03857,-0.42676,0.95044,11,26,169,94
25440,-0.17773,-0.42017,0.92847,11,26,169,94
25460,0.17139,0.37109,0.94019,11,26,169,94
25480,0.16577,0.375,0.95581,11,26,169,94
25500,-0.14453,-0.42163,0.94727,11,26,169,94
25520,0.36743,0.20703,0.96851,11,26,169,94
25540,0.15625,0.36939,0.9541,11,26,169,94
25560,-0.15674,-0.39331,0.95874,11,26,169,94
25580,-0.14917,-0.4350600000000001,0.92334,11,26,169,94
25600,0.19165,0.29663,0.96411,11,26,169,94
25620,0.198,0.28198,0.96826,11,26,169,94
25640,-0.15552,-0.4148,0.93164,11,26,169,94
25660,0.16675,0.37524,0.93262,11,26,169,94
25680,-0.16699,-0.4577600000000001,0.91235,11,26,169,94
25700,-0.03101,-0.42993,0.9541,11,26,169,94
25720,0.03589,-0.4043,0.96118,11,26,169,94
25740,-0.1643099999999999,-0.39648,0.94238,11,26,169,94
25760,-0.15723,-0.42822,0.90894,11,26,169,94
25780,0.2644,0.17432,0.99365,11,26,169,94
25800,-0.21045,-0.45532,0.92725,11,26,169,94
25820,0.19019,0.36401,0.92944,11,26,169,94
25840,0.31567,0.29224,0.9436,11,26,169,94
25860,0.03076,-0.4187,0.99829,11,26,169,94
25880,0.01294,-0.38696,0.94653,11,26,169,94
25900,0.19727,0.34082,0.95386,11,26,169,94
25920,0.02905,-0.38818,0.96899,11,26,169,94
25940,-0.1958,-0.42114,0.91919,11,26,169,94
25960,0.35449,0.2666,0.92554,11,26,169,94
25980,-0.03906,-0.43286,0.94482,11,26,169,94
26000,0.30469,0.29541,0.94922,11,26,169,94
26020,-0.12769,-0.42163,0.93457,11,26,169,94
26040,0.30835,0.31226,0.93848,11,26,169,94
26060,-0.12842,-0.37354,0.96338,11,26,169,94
26080,0.3418,0.34814,0.90674,11,26,169,94
26100,0.38672,0.13599,0.96289,11,26,169,94
26120,0.1640599999999999,0.35669,0.95557,11,26,169,94
26140,-0.02173,-0.43433,0.96875,11,26,169,94
26160,-0.17969,-0.44727,0.90991,11,26,169,94
26180,-0.16919,-0.38574,0.9397,11,26,169,94
26200,0.21484,0.35718,0.92798,11,26,169,94
26220,0.0293,-0.40234,0.96582,11,26,169,94
26240,0.10278,-0.25171,0.9873,11,26,169,94
26260,-0.20581,-0.4519,0.89502,11,26,169,94
26280,-0.15503,-0.38745,0.95215,11,26,169,94
26300,-0.01856,-0.43335,0.94482,11,26,169,94
26320,0.19043,0.32007,0.9353,11,26,169,94
26340,0.27148,0.1704099999999999,0.98413,11,26,169,94
26360,-0.06592,-0.40771,0.948,11,26,169,94
26380,0.23291,0.0695799999999999,0.93726,11,26,169,94
26400,-0.16455,-0.4248,0.91553,11,26,169,94
26420,0.33814,0.33887,0.91309,11,26,169,94
26440,0.03369,-0.3811,0.94898,11,26,169,94
26460,-0.2356,-0.38867,0.92944,11,26,169,94
26480,0.18213,0.33423,0.95679,11,26,169,94
26500,0.00342,-0.38403,0.96191,11,26,169,94
26520,0.01904,-0.36621,0.98047,11,26,169,94
26540,0.34546,0.17456,0.95947,11,26,169,94
26560,0.31738,0.32007,0.92798,11,26,169,94
26580,0.26904,0.16773,0.98511,11,26,169,94
26600,-0.11719,-0.35571,0.9729,12,64,172,75
26620,0.09399,-0.24731,1.0181,12,64,172,75
26640,-0.41748,-0.40381,0.8374,12,64,172,75
26660,-0.16309,-0.40967,0.93237,12,64,172,75
26680,0.31226,0.29834,0.93408,12,64,172,75
26700,-0.16333,-0.40552,0.93848,12,64,172,75
26720,-0.20898,-0.46558,0.91333,12,64,172,75
26740,-0.0979,-0.38428,1.0168,12,64,172,75
26760,0.0249,-0.37866,0.95776,12,64,172,75
26780,-0.17847,-0.40625,0.93066,12,64,172,75
26800,0.33325,0.36548,0.90527,12,64,172,75
26820,0.03076,-0.26685,0.98608,12,64,172,75
26840,0.19824,0.26904,0.97363,12,64,172,75
26860,0.177,0.36133,0.95581,12,64,172,75
26880,-0.05347,-0.4245600000000001,0.94507,12,64,172,75
26900,0.2627,0.16602,0.99683,12,64,172,75
26920,0.30469,0.29321,0.94141,12,64,172,75
26940,-0.01782,-0.43872,0.9541,12,64,172,75
26960,-0.07227,-0.3186,1.0444,12,64,172,75
26980,0.29199,0.16724,0.97949,12,64,172,75
27000,0.02515,-0.34229,0.97754,12,64,172,75
27020,0.03589,-0.38916,0.9729,12,64,172,75
27040,-0.21118,-0.47803,0.8884299999999999,12,64,172,75
27060,0.10107,-0.36377,0.97705,12,64,172,75
27080,-0.17847,-0.46143,0.90772,12,64,172,75
27100,0.28271,0.23462,0.93872,12,64,172,75
27120,-0.13232,-0.36865,0.96069,12,64,172,75
27140,-0.16455,-0.4043,0.93506,12,64,172,75
27160,0.30762,0.29639,0.93359,12,64,172,75
27180,0.1499,0.27637,0.97998,12,64,172,75
27200,-0.0861799999999999,-0.42114,0.95337,12,64,172,75
27220,0.36084,0.09497,0.98096,12,64,172,75
27240,-0.3291,-0.45361,0.8947700000000001,12,64,172,75
27260,0.18286,0.36548,0.94214,12,64,172,75
27280,-0.03345,-0.44287,0.92554,12,64,172,75
27300,0.02246,-0.3894,0.97534,12,64,172,75
27320,0.08814,-0.40356,0.93799,12,64,172,75
27340,0.29248,0.3374,0.92407,12,64,172,75
27360,0.39551,0.12109,0.95361,12,64,172,75
27380,-0.0105,-0.34082,0.97827,12,64,172,75
27400,0.22876,0.34692,0.94263,12,64,172,75
27420,0.19678,0.34351,0.94165,12,64,172,75
27440,0.29224,0.26148,0.93555,12,64,172,75
27460,-0.24829,-0.40064,0.93066,12,64,172,75
27480,-0.12524,-0.42676,0.94141,12,64,172,75
27500,0.3728,0.2168,0.94312,12,64,172,75
27520,-0.16626,-0.23608,1.0046,12,64,172,75
27540,0.05005,-0.40869,0.94531,12,64,172,75
27560,0.26538,0.32983,0.92944,12,64,172,75
27580,0.20166,0.36011,0.94067,12,64,172,75
27600,0.09985,-0.35327,0.97485,12,64,172,75
27620,0.17114,0.36719,0.93774,12,64,172,75
27640,0.03784,-0.39014,0.95532,12,64,172,75
27660,0.10645,0.2478,0.90698,12,64,172,75
27680,-0.16919,-0.43213,0.9126,12,64,172,75
27700,0.0354,-0.38843,0.979,12,64,172,75
27720,0.36548,0.28735,0.90601,12,64,172,75
27740,0.12012,-0.3855,0.92725,12,64,172,75
27760,0.23633,0.28296,0.97925,12,64,172,75
27780,-0.15991,-0.40381,0.9397,12,64,172,75
27800,-0.18335,-0.40283,0.93603,12,64,172,75
27820,-0.19824,-0.47803,0.88428,12,64,172,75
27840,-0.23682,-0.44141,0.90356,12,64,172,75
27860,0.2644,0.19165,1.0002,12,64,172,75
27880,0.0354,-0.31543,1.04,12,64,172,75
27900,-0.03784,-0.43066,0.94214,12,64,172,75
27920,0.30811,0.2898,0.93603,12,64,172,75
27940,0.0083,-0.34961,0.98511,12,64,172,75
27960,-0.05395,-0.42139,0.95386,12,64,172,75
27980,0.0861799999999999,-0.25464,0.99878,12,64,172,75
28000,0.19165,0.30029,0.97217,12,64,172,75
28020,0.03442,-0.3855,0.9956,12,64,172,75
28040,0.17993,0.34424,0.9602,12,64,172,75
28060,-0.18237,-0.46777,0.8989299999999999,12,64,172,75
28080,0.2898,0.14795,0.98145,12,64,172,75
28100,-0.16357,-0.40601,0.93994,12,64,172,75
28120,0.13794,0.24219,0.99365,12,64,172,75
28140,-0.16699,-0.4577600000000001,0.91235,12,64,172,75
28160,0.03369,-0.40259,0.95215,12,64,172,75
28180,0.37695,0.17285,0.95605,12,64,172,75
28200,-0.22461,-0.47852,0.87915,12,64,172,75
28220,0.28198,0.29077,0.92358,12,64,172,75
28240,0.37207,0.21924,0.94824,12,64,172,75
28260,-0.17651,-0.40381,0.92749,12,64,172,75
28280,-0.19214,-0.40698,0.93897,12,64,172,75
28300,-0.14502,-0.46289,0.91943,12,64,172,75
28320,0.01636,-0.34961,0.96606,12,64,172,75
28340,-0.16357,-0.37939,0.93408,12,64,172,75
28360,-0.04883,-0.41211,0.96435,12,64,172,75
28380,0.05469,-0.38867,0.92432,12,64,172,75
28400,0.26148,0.1709,0.9956,12,64,172,75
28420,-0.13184,-0.42017,0.96216,12,64,172,75
28440,0.02344,-0.36499,0.97583,12,64,172,75
28460,-0.17969,-0.40356,0.93213,12,64,172,75
28480,0.19312,0.34888,0.95459,12,64,172,75
28500,0.26099,0.1738299999999999,0.99048,12,64,172,75
28520,0.01343,-0.32446,0.8720700000000001,12,64,172,75
28540,0.20288,0.28101,0.97827,12,64,172,75
28560,0.36548,0.20874,0.96216,12,64,172,75
28580,-0.23047,-0.41211,0.93188,12,64,172,75
28600,-0.06274,-0.44556,0.92969,12,64,172,75
28620,-0.13818,-0.43213,0.93726,12,64,172,75
28640,-0.1648,-0.45996,0.9187,12,64,172,75
28660,0.20703,0.35767,0.93481,12,64,172,75
28680,0.31543,0.3010199999999999,0.9314,12,64,172,75
28700,0.03589,-0.38232,0.97046,12,64,172,75
28720,-0.1640599999999999,-0.39966,0.92334,12,64,172,75
28740,-0.19922,-0.4829100000000001,0.8947700000000001,12,64,172,75
28760,0.37476,0.13648,0.95825,12,64,172,75
28780,0.01343,-0.35498,0.96924,12,64,172,75
28800,0.26587,0.16992,0.97803,12,64,172,75
28820,0.15845,0.32617,0.9812,13,43,183,104
28840,-0.03247,-0.4411600000000001,0.94898,13,43,183,104
28860,-0.12158,-0.22754,0.9873,13,43,183,104
28880,0.19653,0.35474,0.95557,13,43,183,104
28900,0.02905,-0.38818,0.96899,13,43,183,104
28920,0.09815,-0.2395,1.011,13,43,183,104
28940,-0.1582,-0.33691,0.98584,13,43,183,104
28960,0.13037,0.28882,0.98315,13,43,183,104
28980,-0.1001,-0.31348,0.96997,13,43,183,104
29000,0.18188,0.37012,0.93652,13,43,183,104
29020,0.3103,0.31348,0.91943,13,43,183,104
29040,0.16309,0.37305,0.9541,13,43,183,104
29060,0.01294,-0.38745,0.95459,13,43,183,104
29080,0.02051,-0.35718,0.97095,13,43,183,104
29100,0.16968,0.38013,0.948,13,43,183,104
29120,-0.18872,-0.39355,0.9231,13,43,183,104
29140,0.34375,0.20459,0.96143,13,43,183,104
29160,0.19409,0.34668,0.95459,13,43,183,104
29180,-0.06519,-0.4497100000000001,0.94605,13,43,183,104
29200,0.39575,0.1311,0.94019,13,43,183,104
29220,0.20215,0.28735,0.96704,13,43,183,104
29240,0.02564,-0.36841,0.98267,13,43,183,104
29260,0.16162,0.37915,0.94702,13,43,183,104
29280,0.03735,-0.36621,0.98901,13,43,183,104
29300,0.37866,0.12695,0.96143,13,43,183,104
29320,-0.17554,-0.41089,0.94116,13,43,183,104
29340,0.20288,0.26611,0.98096,13,43,183,104
29360,-0.19385,-0.4870600000000001,0.8977,13,43,183,104
29380,0.00415,-0.38818,0.96777,13,43,183,104
29400,-0.18115,-0.4265100000000001,0.8894,13,43,183,104
29420,0.26099,0.1735799999999999,0.98364,13,43,183,104
29440,-0.17944,-0.41382,0.94141,13,43,183,104
29460,-0.1787099999999999,-0.41138,0.92871,13,43,183,104
29480,0.0293,-0.38184,0.96948,13,43,183,104
29500,0.26782,0.17529,0.9834,13,43,183,104
29520,-0.16699,-0.4577600000000001,0.91235,13,43,183,104
29540,0.05005,-0.39917,0.96924,13,43,183,104
29560,0.3418,0.34546,0.92334,13,43,183,104
29580,0.14795,0.25439,1.0171,13,43,183,104
29600,0.1919,0.27148,0.96973,13,43,183,104
29620,-0.19653,-0.48389,0.88794,13,43,183,104
29640,-0.18115,-0.47485,0.89502,13,43,183,104
29660,0.37598,0.21362,0.92773,13,43,183,104
29680,-0.12744,-0.42578,0.92749,13,43,183,104
29700,-0.06787,-0.4126,0.94971,13,43,183,104
29720,0.01025,-0.35913,0.93433,13,43,183,104
29740,0.40845,0.23706,0.94556,13,43,183,104
29760,0.24097,0.31885,0.94067,13,43,183,104
29780,0.03296,-0.42944,0.96411,13,43,183,104
29800,0.21997,0.34888,0.93237,13,43,183,104
29820,-0.16602,-0.40771,0.96118,13,43,183,104
29840,-0.16284,-0.40356,0.94214,13,43,183,104
29860,0.20532,0.36768,0.8952600000000001,13,43,183,104
29880,0.0861799999999999,-0.3584,0.91553,13,43,183,104
29900,0.16895,0.32764,0.94482,13,43,183,104
29920,0.37524,0.14111,0.9602,13,43,183,104
29940,-0.03149,-0.4375,0.93921,13,43,183,104
29960,-0.20142,-0.46216,0.90088,13,43,183,104
29980,-0.05542,-0.43896,0.93945,13,43,183,104
30000,-0.31909,-0.4585,0.95361,13,43,183,104
30020,-0.23462,-0.41284,0.8989299999999999,13,43,183,104
30040,0.05859,-0.37329,0.97925,13,43,183,104
30060,0.17139,0.35596,0.9397,13,43,183,104
30080,-0.15625,-0.46533,0.86865,13,43,183,104
30100,0.03467,-0.38135,1.0557,13,43,183,104
30120,0.31934,0.29297,0.92773,13,43,183,104
30140,-0.12158,-0.37183,0.96265,13,43,183,104
30160,-0.13232,-0.37207,0.96435,13,43,183,104
30180,-0.16675,-0.4729,0.90796,13,43,183,104
30200,0.03003,-0.35449,0.97266,13,43,183,104
30220,0.17505,0.34399,0.95727,13,43,183,104
30240,0.20727,0.25317,0.97949,13,43,183,104
30260,0.34497,0.23267,0.93799,13,43,183,104
30280,-0.15869,-0.3977,0.948,13,43,183,104
30300,-0.21533,-0.4751,0.8938,13,43,183,104
30320,-0.0144,-0.44043,0.93921,13,43,183,104
30340,0.22339,0.3396,0.96826,13,43,183,104
30360,0.0437,-0.39575,0.95361,13,43,183,104
30380,0.32861,0.29614,0.93897,13,43,183,104
30400,0.0529799999999999,-0.41724,0.95752,13,43,183,104
30420,-0.2168,-0.47681,0.90918,13,43,183,104
30440,0.31323,0.3322699999999999,0.9187,13,43,183,104
30460,-0.07959,-0.45239,0.93799,13,43,183,104
30480,0.0061,-0.35693,0.99707,13,43,183,104
30500,0.01685,-0.39282,0.96118,13,43,183,104
30520,-0.18726,-0.49097,0.8928200000000001,13,43,183,104
30540,0.0139199999999999,-0.38208,0.94824,13,43,183,104
30560,0.04956,-0.38989,1.0037,13,43,183,104
30580,0.02051,-0.35718,0.97046,13,43,183,104
30600,0.0156199999999999,-0.37964,0.96313,13,43,183,104
30620,0.34033,0.36816,0.8715799999999999,13,43,183,104
30640,0.1704099999999999,0.36865,0.94019,13,43,183,104
30660,0.04712,-0.37817,0.93677,13,43,183,104
30680,0.17578,0.34595,0.97949,13,43,183,104
30700,0.04565,-0.36987,0.95825,13,43,183,104
30720,0.16821,0.34839,0.94678,13,43,183,104
30740,-0.05737,-0.4502,0.92456,13,43,183,104
30760,0.36328,0.20435,0.94605,13,43,183,104
30780,-0.14868,-0.4314,0.94775,13,43,183,104
30800,0.25317,0.31128,0.90991,13,43,183,104
30820,0.30737,0.25488,0.95142,13,43,183,104
30840,0.28882,0.18042,0.96655,13,43,183,104
30860,0.15161,0.29517,0.96362,13,43,183,104
30880,-0.21021,-0.4668,0.91211,13,43,183,104
30900,0.02295,-0.4021,0.96118,13,43,183,104
30920,-0.13232,-0.39722,0.92261,13,43,183,104
30940,0.00806,-0.37451,0.9751,13,43,183,104
30960,0.1655299999999999,0.32739,0.98828,13,43,183,104
30980,0.32349,0.3335,0.94019,13,43,183,104
31000,-0.05835,-0.45313,0.93115,13,43,183,104
31020,0.22461,0.32861,0.93115,13,43,183,104
31040,0.22339,0.35278,0.94238,13,43,183,104
31060,0.0437,-0.39575,0.95361,13,43,183,104
31080,-0.41162,-0.41357,0.84424,13,43,183,104
31100,0.05029,-0.4043,0.95557,13,43,183,104
31120,-0.19995,-0.44238,0.88989,13,43,183,104
31140,0.21509,0.36279,0.92163,13,43,183,104
31160,-0.02515,-0.43896,0.93335,13,43,183,104
31180,0.12451,0.29443,0.9729,14,20,175,50
31200,-0.18164,-0.40747,0.93481,14,20,175,50
31220,0.17554,0.37036,0.93384,14,20,175,50
31240,0.28442,0.1687,0.94775,14,20,175,50
31260,0.10376,-0.24927,0.99951,14,20,175,50
31280,0.3010199999999999,0.33008,0.91162,14,20,175,50
31300,-0.3291,-0.45361,0.8947700000000001,14,20,175,50
31320,-0.0813,-0.2998,0.95605,14,20,175,50
31340,0.02588,-0.34888,0.97144,14,20,175,50
31360,-0.03442,-0.44556,0.94995,14,20,175,50
31380,0.33105,0.35498,0.91382,14,20,175,50
31400,0.20068,0.34741,0.94385,14,20,175,50
31420,-0.2063,-0.43481,0.92602,14,20,175,50
31440,0.25146,0.12109,1.0029,14,20,175,50
31460,0.37598,0.21094,0.89404,14,20,175,50
31480,-0.0083,-0.42163,0.95386,14,20,175,50
31500,-0.24829,-0.40064,0.93066,14,20,175,50
31520,0.31055,0.33008,0.92261,14,20,175,50
31540,-0.18896,-0.39282,0.92847,14,20,175,50
31560,0.26782,0.17529,0.9834,14,20,175,50
31580,-0.00098,-0.36035,0.99194,14,20,175,50
31600,0.0529799999999999,-0.41724,0.95752,14,20,175,50
31620,0.26538,0.18188,0.98218,14,20,175,50
31640,-0.04492,-0.43262,0.97095,14,20,175,50
31660,-0.14477,-0.37183,0.96509,14,20,175,50
31680,0.32227,0.3010199999999999,0.95068,14,20,175,50
31700,0.28882,0.1499,0.98145,14,20,175,50
31720,0.17261,0.20947,0.98169,14,20,175,50
31740,0.37891,0.18652,0.95337,14,20,175,50
31760,-0.19336,-0.43774,0.91309,14,20,175,50
31780,0.17725,0.36914,0.94873,14,20,175,50
31800,-0.19214,-0.38672,0.9436,14,20,175,50
31820,-0.05078,-0.4375,0.95288,14,20,175,50
31840,-0.10791,-0.4021,0.91162,14,20,175,50
31860,0.03882,-0.39844,0.95752,14,20,175,50
31880,0.20142,0.34326,0.9519,14,20,175,50
31900,-0.15625,-0.40234,0.93726,14,20,175,50
31920,0.27856,0.31567,0.92749,14,20,175,50
31940,0.41016,0.11841,0.97339,14,20,175,50
31960,0.21313,0.34473,0.93701,14,20,175,50
31980,0.01831,-0.34692,0.9751,14,20,175,50
32000,-0.06665,-0.4489800000000001,0.93481,14,20,175,50
32020,0.37134,0.2207,0.93945,14,20,175,50
32040,-0.06348,-0.42261,0.93579,14,20,175,50
32060,-0.21289,-0.4563,0.90381,14,20,175,50
32080,0.00415,-0.38818,0.96777,14,20,175,50
32100,-0.16968,-0.4021,0.93555,14,20,175,50
32120,0.20337,0.27637,0.97144,14,20,175,50
32140,0.2688,0.17578,0.97827,14,20,175,50
32160,0.12012,-0.3855,0.92725,14,20,175,50
32180,0.20581,0.36548,0.94165,14,20,175,50
32200,-0.02783,-0.4353,0.94165,14,20,175,50
32220,0.28491,0.17529,0.98877,14,20,175,50
32240,0.0332,-0.39063,0.9624,14,20,175,50
32260,0.20703,0.35767,0.93481,14,20,175,50
32280,0.18555,0.32398,0.95386,14,20,175,50
32300,0.32959,0.27856,0.9314,14,20,175,50
32320,-0.16846,-0.41748,0.92261,14,20,175,50
32340,-0.15527,-0.46387,0.91235,14,20,175,50
32360,0.34033,0.39136,0.8806200000000001,14,20,175,50
32380,-0.15503,-0.38721,0.94653,14,20,175,50
32400,-0.18384,-0.39087,0.91504,14,20,175,50
32420,-0.13013,-0.42358,0.93433,14,20,175,50
32440,-0.18701,-0.41016,0.92944,14,20,175,50
32460,0.21167,0.28125,0.97144,14,20,175,50
32480,-0.06103,-0.45288,0.95483,14,20,175,50
32500,0.3772,0.11694,0.95215,14,20,175,50
32520,-0.0529799999999999,-0.3623,1.0078,14,20,175,50
32540,-0.09644,-0.4231,0.94946,14,20,175,50
32560,0.30518,0.29785,0.94971,14,20,175,50
32580,0.00977,-0.37036,0.9668,14,20,175,50
32600,0.21411,0.24438,0.87671,14,20,175,50
32620,0.18433,0.28735,0.97144,14,20,175,50
32640,0.1748,0.36401,0.9397,14,20,175,50
32660,0.02246,-0.37915,0.98999,14,20,175,50
32680,-0.1391599999999999,-0.427,0.93384,14,20,175,50
32700,0.37695,0.13501,0.95166,14,20,175,50
32720,-0.04077,-0.37646,0.9751,14,20,175,50
32740,-0.04785,-0.43604,0.95239,14,20,175,50
32760,0.01318,-0.33765,0.98071,14,20,175,50
32780,-0.18677,-0.44507,0.90015,14,20,175,50
32800,0.36304,0.09033,1.011,14,20,175,50
32820,0.01318,-0.39063,0.97192,14,20,175,50
32840,0.04492,-0.38037,0.97315,14,20,175,50
32860,-0.0571299999999999,-0.42163,0.94214,14,20,175,50
32880,0.021,-0.35571,0.98145,14,20,175,50
32900,-0.15503,-0.38721,0.94653,14,20,175,50
32920,-0.03418,-0.41895,0.9519,14,20,175,50
32940,0.0354,-0.41113,0.96533,14,20,175,50
32960,0.0249,-0.35596,0.95996,14,20,175,50
32980,0.01587,-0.39258,0.96387,14,20,175,50
33000,-0.0293,-0.44019,0.94165,14,20,175,50
33020,0.02344,-0.36694,0.95557,14,20,175,50
33040,0.03857,-0.36768,0.979,14,20,175,50
33060,0.24121,0.35254,0.97461,14,20,175,50
33080,0.36157,0.20557,0.94629,14,20,175,50
33100,-0.19434,-0.48511,0.90259,14,20,175,50
33120,0.03174,-0.39648,0.97656,14,20,175,50
33140,0.31201,0.3479,0.92358,14,20,175,50
33160,-0.05762,-0.43213,0.94507,14,20,175,50
33180,0.30493,0.29565,0.948,14,20,175,50
33200,-0.11157,-0.40845,0.88184,14,20,175,50
33220,-0.1626,-0.42188,0.92969,14,20,175,50
33240,0.23486,0.3418,0.93823,14,20,175,50
33260,0.17993,0.33643,0.96338,14,20,175,50
33280,-0.15771,-0.44605,0.91382,14,20,175,50
33300,0.05347,-0.39136,0.95264,14,20,175,50
33320,0.03638,-0.41553,0.95093,14,20,175,50
33340,0.00977,-0.3894,0.98047,14,20,175,50
33360,-0.11206,-0.3645,0.97217,14,20,175,50
33380,0.17627,0.35205,0.94458,14,20,175,50
33400,0.02002,-0.39355,0.96118,14,20,175,50
33420,-0.05737,-0.47388,0.86792,14,20,175,50
33440,-0.13086,-0.42114,0.94141,14,20,175,50
33460,0.31396,0.30249,0.94434,14,20,175,50
33480,0.00903,-0.38135,0.97461,14,20,175,50
33500,0.30811,0.27539,0.95117,14,20,175,50
33520,-0.20483,-0.40527,0.93042,14,20,175,50
33540,0.19531,0.3501,0.93506,14,20,175,50
33560,-0.16968,-0.27637,0.98511,14,20,175,50
33580,-0.2289999999999999,-0.41895,0.94067,14,20,175,50
33600,-0.19702,-0.40405,0.91528,14,20,175,50
33620,0.35132,0.34131,0.91211,14,20,175,50
33640,-0.15771,-0.38745,0.94727,14,20,175,50
33660,-0.31079,-0.46069,0.92261,15,40,192,65
33680,0.09546,-0.23755,1.0171,15,40,192,65
33700,-0.18774,-0.50513,0.8877,15,40,192,65
33720,0.19556,0.3418,0.95996,15,40,192,65
33740,0.2998,0.14624,0.98804,15,40,192,65
33760,-0.24951,-0.45093,0.8757299999999999,15,40,192,65
33780,0.35889,0.1342799999999999,0.94775,15,40,192,65
33800,0.07666,-0.22705,1.0144,15,40,192,65
33820,-0.1687,-0.41699,0.93603,15,40,192,65
33840,0.20215,0.37866,0.93115,15,40,192,65
33860,0.17651,0.35645,0.94775,15,40,192,65
33880,-0.17188,-0.40698,0.93164,15,40,192,65
33900,-0.14453,-0.41504,0.92871,15,40,192,65
33920,0.30908,0.29858,0.9375,15,40,192,65
33940,0.23315,0.27026,0.979,15,40,192,65
33960,0.33618,0.24805,0.94214,15,40,192,65
33980,0.26489,0.28589,0.92847,15,40,192,65
34000,0.17578,0.23023,1.0159,15,40,192,65
34020,-0.11865,-0.35474,0.98096,15,40,192,65
34040,-0.04492,-0.40845,0.9375,15,40,192,65
34060,0.19653,0.33325,0.95874,15,40,192,65
34080,0.01685,-0.35596,0.98315,15,40,192,65
34100,-0.14355,-0.4104,0.92627,15,40,192,65
34120,-0.00073,-0.3811,0.979,15,40,192,65
34140,0.03564,-0.38892,0.96338,15,40,192,65
34160,0.1377,0.32031,0.97119,15,40,192,65
34180,-0.31201,-0.44189,0.86865,15,40,192,65
34200,0.38232,0.11279,0.97046,15,40,192,65
34220,0.01294,-0.38208,0.96167,15,40,192,65
34240,0.30811,0.28369,0.94116,15,40,192,65
34260,0.2771,0.28491,0.95093,15,40,192,65
34280,0.00195,-0.40356,0.97559,15,40,192,65
34300,-0.1789599999999999,-0.41064,0.94238,15,40,192,65
34320,0.00977,-0.33691,0.99609,15,40,192,65
34340,-0.13989,-0.40698,0.95996,15,40,192,65
34360,-0.17969,-0.48633,0.89185,15,40,192,65
34380,-0.01587,-0.44067,0.93872,15,40,192,65
34400,0.26392,0.17505,0.98852,15,40,192,65
34420,-0.0852,-0.39136,0.95532,15,40,192,65
34440,0.2666,0.17407,0.98169,15,40,192,65
34460,0.01929,-0.37695,0.97656,15,40,192,65
34480,0.2937,0.2456,0.91284,15,40,192,65
34500,-0.16309,-0.4148,0.92334,15,40,192,65
34520,0.03296,-0.38257,0.97192,15,40,192,65
34540,0.28638,0.15552,0.98608,15,40,192,65
34560,-0.2146,-0.46362,0.8999,15,40,192,65
34580,0.31958,0.33423,0.92627,15,40,192,65
34600,0.1792,0.33423,0.95093,15,40,192,65
34620,-0.19043,-0.45264,0.90723,15,40,192,65
34640,0.02832,-0.39941,0.97559,15,40,192,65
34660,0.1958,0.34595,0.948,15,40,192,65
34680,-0.07861,-0.40698,0.96435,15,40,192,65
34700,0.03418,-0.35962,0.97168,15,40,192,65
34720,0.00757,-0.34936,0.97803,15,40,192,65
34740,0.05469,-0.38867,0.92432,15,40,192,65
34760,-0.19263,-0.43481,0.92383,15,40,192,65
34780,-0.12329,-0.37134,0.9729,15,40,192,65
34800,-0.05786,-0.41016,0.95117,15,40,192,65
34820,0.34424,0.1311,0.93628,15,40,192,65
34840,0.18335,0.33472,0.94678,15,40,192,65
34860,-0.20727,-0.43677,0.91724,15,40,192,65
34880,0.10864,0.30005,1.0044,15,40,192,65
34900,0.19165,0.27734,0.96289,15,40,192,65
34920,0.2229,0.34473,0.93603,15,40,192,65
34940,-0.19141,-0.40356,0.94507,15,40,192,65
34960,0.021,-0.36694,0.96533,15,40,192,65
34980,0.17261,0.3645,0.93652,15,40,192,65
35000,0.17798,0.4184600000000001,0.93628,15,40,192,65
35020,0.0271,-0.3916,0.96289,15,40,192,65
35040,-0.1423299999999999,-0.43018,0.94434,15,40,192,65
35060,-0.19702,-0.41016,0.92651,15,40,192,65
35080,0.19605,0.34106,0.95776,15,40,192,65
35100,0.07105,-0.36352,0.9812,15,40,192,65
35120,0.19849,0.33862,0.94458,15,40,192,65
35140,-0.09106,-0.40186,0.96899,15,40,192,65
35160,0.03638,-0.38355,0.95508,15,40,192,65
35180,-0.14673,-0.46265,0.92529,15,40,192,65
35200,0.34009,0.38452,0.8859899999999999,15,40,192,65
35220,0.21924,0.08716,1.0132,15,40,192,65
35240,0.05005,-0.37866,0.93433,15,40,192,65
35260,0.21484,0.35718,0.92798,15,40,192,65
35280,0.2793,0.16699,0.98877,15,40,192,65
35300,0.26563,0.18799,0.96338,15,40,192,65
35320,0.18872,0.32251,0.92993,15,40,192,65
35340,-0.25464,-0.45923,0.89038,15,40,192,65
35360,-0.16016,-0.43335,0.93091,15,40,192,65
35380,0.01343,-0.32446,0.8720700000000001,15,40,192,65
35400,-0.05542,-0.42895,0.95752,15,40,192,65
35420,0.3645,0.21387,0.94287,15,40,192,65
35440,0.38818,0.10034,0.96973,15,40,192,65
35460,0.33594,0.35083,0.90454,15,40,192,65
35480,-0.19653,-0.43091,0.92895,15,40,192,65
35500,0.25855,0.1704099999999999,0.9895,15,40,192,65
35520,-0.17114,-0.38379,0.94629,15,40,192,65
35540,0.27515,0.18604,0.98852,15,40,192,65
35560,0.32813,0.36133,0.9165,15,40,192,65
35580,-0.02759,-0.43433,0.94702,15,40,192,65
35600,-0.02881,-0.45093,0.9436,15,40,192,65
35620,0.20386,0.32568,0.91797,15,40,192,65
35640,-0.03247,-0.44043,0.93286,15,40,192,65
35660,-0.18652,-0.40088,0.94702,15,40,192,65
35680,0.3645,0.21411,0.94214,15,40,192,65
35700,0.18823,0.27075,0.97388,15,40,192,65
35720,-0.05835,-0.44385,0.92798,15,40,192,65
35740,-0.18384,-0.46387,0.90576,15,40,192,65
35760,0.32544,0.36011,0.91235,15,40,192,65
35780,0.3335,0.31592,0.92041,15,40,192,65
35800,0.271,0.1687,0.97705,15,40,192,65
35820,-0.0686,-0.42334,0.95752,15,40,192,65
35840,-0.18384,-0.39087,0.91504,15,40,192,65
35860,0.0249,-0.35059,0.98218,15,40,192,65
35880,0.31567,0.36011,0.90772,15,40,192,65
35900,0.07227,-0.37646,0.95117,15,40,192,65
35920,0.04541,-0.38989,0.96948,15,40,192,65
35940,0.04785,-0.34399,0.99145,15,40,192,65
35960,0.03931,-0.35913,0.98145,15,40,192,65
35980,0.17261,0.44287,0.89307,15,40,192,65
36000,0.23291,0.33008,0.94751,15,40,192,65
36020,-0.1792,-0.41919,0.94678,15,40,192,65
36040,0.18408,0.27344,0.97437,15,40,192,65
36060,-0.18066,-0.40894,0.92529,15,40,192,65
36080,0.00391,-0.37988,0.98193,15,40,192,65
36100,-0.21143,-0.42627,0.91553,15,40,192,65
36120,0.17114,0.33618,0.95435,15,40,192,65
36140,0.26709,0.18628,0.97949,15,40,192,65
36160,0.03833,-0.39526,0.94995,15,40,192,65
36180,0.19946,0.28467,0.96631,15,40,192,65
36200,0.31738,0.37549,0.90381,15,40,192,65
36220,0.02588,-0.34888,0.97144,15,40,192,65
36240,-0.28809,-0.40064,0.90674,15,40,192,65
36260,0.00293,-0.39355,0.96655,15,40,192,65
36280,-0.16992,-0.3977,0.92822,15,40,192,65
36300,0.02368,-0.39185,0.95947,15,40,192,65
36320,-0.22998,-0.41821,0.92676,15,40,192,65
36340,-0.03345,-0.43433,0.95435,15,40,192,65
36360,0.02246,-0.40601,0.93945,15,40,192,65
36380,-0.18555,-0.30298,0.9419,15,40,192,65
36400,-0.21851,-0.37476,0.93994,15,40,192,65
36420,-0.23145,-0.4585,0.9397,15,40,192,65
36440,0.1748,0.37476,0.93945,15,40,192,65
36460,-0.16797,-0.3877,0.9375,15,40,192,65
36480,-0.0918,-0.21118,0.96362,15,40,192,65
36500,0.26001,0.17578,0.9773,15,40,192,65
36520,0.08814,-0.24365,1.0295,16,55,157,84
36540,-0.17432,-0.40234,0.95679,16,55,157,84
36560,0.05054,-0.3864800000000001,0.9646,16,55,157,84
36580,-0.09644,-0.4231,0.94946,16,55,157,84
36600,-0.13648,-0.4497100000000001,0.94385,16,55,157,84
36620,0.24268,0.38135,0.92749,16,55,157,84
36640,-0.19605,-0.49365,0.88623,16,55,157,84
36660,0.05859,-0.3667,0.95288,16,55,157,84
36680,0.17578,0.37695,0.94336,16,55,157,84
36700,0.17822,0.26392,0.96167,16,55,157,84
36720,0.00659,-0.35986,0.98682,16,55,157,84
36740,0.26855,0.17114,0.99341,16,55,157,84
36760,0.04541,-0.39648,0.96753,16,55,157,84
36780,0.02344,-0.36401,0.97949,16,55,157,84
36800,0.1687,0.3479,0.95874,16,55,157,84
36820,-0.05225,-0.43799,0.94092,16,55,157,84
36840,0.17407,0.35986,0.95898,16,55,157,84
36860,0.35938,0.15332,0.97925,16,55,157,84
36880,-0.17969,-0.4411600000000001,0.90015,16,55,157,84
36900,-0.1652799999999999,-0.41602,0.9331,16,55,157,84
36920,0.0105,-0.36694,0.97559,16,55,157,84
36940,0.00879,-0.41675,0.9331,16,55,157,84
36960,-0.22583,-0.37988,0.93091,16,55,157,84
36980,0.32227,0.35303,0.91602,16,55,157,84
37000,-0.20239,-0.41138,0.92822,16,55,157,84
37020,0.04053,-0.37793,0.97461,16,55,157,84
37040,0.28442,0.17261,0.98926,16,55,157,84
37060,-0.1787099999999999,-0.46558,0.93457,16,55,157,84
37080,0.02905,-0.37329,0.97949,16,55,157,84
37100,0.04712,-0.24536,1.0056,16,55,157,84
37120,-0.10938,-0.33032,0.95801,16,55,157,84
37140,0.0354,-0.37915,0.97681,16,55,157,84
37160,-0.04492,-0.40845,0.9375,16,55,157,84
37180,-0.17188,-0.47217,0.9148,16,55,157,84
37200,-0.19653,-0.48389,0.88794,16,55,157,84
37220,0.01587,-0.3916,0.98047,16,55,157,84
37240,-0.02539,-0.43433,0.93506,16,55,157,84
37260,-0.16016,-0.38477,0.95874,16,55,157,84
37280,0.03979,-0.38599,0.96851,16,55,157,84
37300,0.18091,0.34863,0.92944,16,55,157,84
37320,-0.00806,-0.2522,1.0525,16,55,157,84
37340,0.25879,0.16821,0.98047,16,55,157,84
37360,0.26636,0.17114,0.99316,16,55,157,84
37380,0.03711,-0.3938,0.96509,16,55,157,84
37400,0.08179,-0.37817,0.96655,16,55,157,84
37420,-0.02979,-0.44263,0.93481,16,55,157,84
37440,0.25024,0.17627,1.0007,16,55,157,84
37460,0.09106,-0.26025,1.0127,16,55,157,84
37480,-0.2356,-0.38867,0.92944,16,55,157,84
37500,0.0712899999999999,-0.24536,1.0,16,55,157,84
37520,-0.1665,-0.46802,0.8928200000000001,16,55,157,84
37540,0.23413,0.34229,0.94531,16,55,157,84
37560,0.03247,-0.39063,0.9602,16,55,157,84
37580,0.04981,-0.24243,1.0173,16,55,157,84
37600,0.16162,0.34131,0.95605,16,55,157,84
37620,0.15747,0.3523,0.95386,16,55,157,84
37640,-0.00732,-0.44727,0.93652,16,55,157,84
37660,0.26465,0.1787099999999999,0.97705,16,55,157,84
37680,-0.02441,-0.43726,0.93262,16,55,157,84
37700,0.03442,-0.38159,0.97363,16,55,157,84
37720,0.35254,0.2251,0.92895,16,55,157,84
37740,-0.10791,-0.4021,0.91162,16,55,157,84
37760,-0.18579,-0.40503,0.9331,16,55,157,84
37780,-0.31396,-0.41724,0.8989299999999999,16,55,157,84
37800,0.03027,-0.38696,0.95825,16,55,157,84
37820,0.01489,-0.39551,0.95801,16,55,157,84
37840,-0.14941,-0.46338,0.9292,16,55,157,84
37860,0.20386,0.33545,0.96802,16,55,157,84
37880,0.33838,0.31519,0.92407,16,55,157,84
37900,-0.13477,-0.42578,0.92529,16,55,157,84
37920,0.26538,0.10645,1.0457,16,55,157,84
37940,-0.177,-0.48486,0.8981899999999999,16,55,157,84
37960,0.02197,-0.35547,0.99097,16,55,157,84
37980,0.05249,-0.1626,1.0156,16,55,157,84
38000,0.37695,0.2207,0.9292,16,55,157,84
38020,-0.05566,-0.41821,0.9624,16,55,157,84
38040,0.28809,0.16992,0.91797,16,55,157,84
38060,-0.1875,-0.41357,0.93018,16,55,157,84
38080,-0.06543,-0.41602,0.94995,16,55,157,84
38100,-0.4099100000000001,-0.59058,0.77808,16,55,157,84
38120,0.20215,0.35913,0.93945,16,55,157,84
38140,0.19898,0.25098,0.96875,16,55,157,84
38160,-0.0156199999999999,-0.34497,0.97607,16,55,157,84
38180,0.32398,0.31787,0.90674,16,55,157,84
38200,0.01001,-0.35718,0.979,16,55,157,84
38220,0.30762,0.32617,0.93897,16,55,157,84
38240,0.30933,0.20825,0.93823,16,55,157,84
38260,0.0708,-0.38184,0.96899,16,55,157,84
38280,-0.08691,-0.40894,0.94702,16,55,157,84
38300,-0.02417,-0.43579,0.9419,16,55,157,84
38320,-0.06055,-0.45288,0.9353,16,55,157,84
38340,0.20337,0.35962,0.93726,16,55,157,84
38360,-0.12329,-0.43433,0.93872,16,55,157,84
38380,0.10498,-0.36621,0.97388,16,55,157,84
38400,0.1789599999999999,0.35986,0.94727,16,55,157,84
38420,0.36108,0.12866,0.95752,16,55,157,84
38440,0.26294,0.17261,0.97852,16,55,157,84
38460,0.20142,0.34326,0.9519,16,55,157,84
38480,0.2793,0.32153,0.93262,16,55,157,84
38500,-0.1543,-0.46387,0.91333,16,55,157,84
38520,0.01343,-0.35498,0.96924,16,55,157,84
38540,-0.12671,-0.39526,0.97022,16,55,157,84
38560,0.41211,0.1582,0.9458,16,55,157,84
38580,0.19702,0.28076,0.96899,16,55,157,84
38600,-0.16919,-0.47534,0.9126,16,55,157,84
38620,0.36816,0.21143,0.94263,16,55,157,84
38640,0.0564,-0.23706,1.0049,16,55,157,84
38660,0.2605,0.16113,0.99194,16,55,157,84
38680,-0.04419,-0.4292,0.95288,16,55,157,84
38700,0.30762,0.29883,0.94238,16,55,157,84
38720,0.31494,0.33472,0.92261,16,55,157,84
38740,-0.17529,-0.3977,0.93921,16,55,157,84
38760,-0.12402,-0.3999,0.95605,16,55,157,84
38780,-0.0166,-0.43481,0.96289,16,55,157,84
38800,0.3396,0.37524,0.8986799999999999,16,55,157,84
38820,-0.0671399999999999,-0.4187,0.97217,16,55,157,84
38840,0.31396,0.30469,0.93872,16,55,157,84
38860,0.25855,0.18872,0.98486,16,55,157,84
38880,-0.0564,-0.4497100000000001,0.92578,16,55,157,84
38900,-0.18799,-0.39233,0.9419,16,55,157,84
38920,0.3916,0.13648,0.95825,16,55,157,84
38940,0.1897,0.26855,0.98291,16,55,157,84
38960,-0.1272,-0.30249,1.0063,16,55,157,84
38980,0.02515,-0.38916,0.96826,17,30,178,88
39000,0.09741,-0.24878,1.0164,17,30,178,88
39020,0.01904,-0.40112,0.96973,17,30,178,88
39040,0.01856,-0.38452,0.96802,17,30,178,88
39060,0.25561,0.06006,1.0103,17,30,178,88
39080,0.33398,0.37061,0.89746,17,30,178,88
39100,0.1709,0.35913,0.93823,17,30,178,88
39120,-0.02295,-0.43481,0.94458,17,30,178,88
39140,0.21362,0.08008,1.0134,17,30,178,88
39160,0.31372,0.29883,0.94165,17,30,178,88
39180,-0.15039,-0.48975,0.88159,17,30,178,88
39200,-0.01465,-0.38745,0.96582,17,30,178,88
39220,0.13086,-0.3479,0.97412,17,30,178,88
39240,-0.14185,-0.39209,0.9519,17,30,178,88
39260,-0.03223,-0.42505,0.94458,17,30,178,88
39280,0.03857,-0.40771,0.95435,17,30,178,88
39300,0.37158,0.20923,0.9375,17,30,178,88
39320,0.0227,-0.37671,0.98218,17,30,178,88
39340,0.31201,0.3728,0.91699,17,30,178,88
39360,-0.21826,-0.45825,0.927,17,30,178,88
39380,-0.18384,-0.46387,0.90576,17,30,178,88
39400,0.19922,0.27222,0.97485,17,30,178,88
39420,-0.14502,-0.46289,0.91943,17,30,178,88
39440,0.03052,-0.35449,0.98511,17,30,178,88
39460,0.25757,0.1735799999999999,0.99365,17,30,178,88
39480,-0.15185,-0.4577600000000001,0.94653,17,30,178,88
39500,0.18213,0.35962,0.95044,17,30,178,88
39520,-0.15015,-0.42432,0.93115,17,30,178,88
39540,-0.16943,-0.40064,0.95142,17,30,178,88
39560,0.3999,0.1342799999999999,0.94946,17,30,178,88
39580,0.38159,0.12036,0.94971,17,30,178,88
39600,-0.2251,-0.49512,0.91406,17,30,178,88
39620,0.02856,-0.36963,0.98291,17,30,178,88
39640,-0.05591,-0.44629,0.92676,17,30,178,88
39660,-0.00537,-0.3623,0.98291,17,30,178,88
39680,0.19727,0.34229,0.94165,17,30,178,88
39700,-0.1652799999999999,-0.41602,0.9331,17,30,178,88
39720,0.02808,-0.38843,0.98267,17,30,178,88
39740,0.20239,0.2727,0.96167,17,30,178,88
39760,-0.03223,-0.42505,0.94458,17,30,178,88
39780,0.33814,0.32959,0.92383,17,30,178,88
39800,0.01856,-0.38452,0.96802,17,30,178,88
39820,0.06201,-0.41235,0.96167,17,30,178,88
39840,0.02856,-0.34448,0.97241,17,30,178,88
39860,0.46362,0.14209,0.89307,17,30,178,88
39880,-0.19873,-0.41602,0.92407,17,30,178,88
39900,-0.05981,-0.41211,0.93848,17,30,178,88
39920,-0.20093,-0.45264,0.90845,17,30,178,88
39940,0.00391,-0.37329,0.96387,17,30,178,88
39960,0.04126,-0.33374,0.97363,17,30,178,88
39980,0.17261,0.35498,0.95117,17,30,178,88
40000,0.00415,-0.3864800000000001,0.97632,17,30,178,88
40020,0.1687,0.37378,0.93603,17,30,178,88
40040,0.18555,0.3501,0.90405,17,30,178,88
40060,-0.01001,-0.23291,1.0076,17,30,178,88
40080,-0.1311,-0.42871,0.94678,17,30,178,88
40100,0.01294,-0.38745,0.95459,17,30,178,88
40120,0.04199,-0.40771,0.92822,17,30,178,88
40140,-0.13843,-0.4331100000000001,0.93115,17,30,178,88
40160,-0.38623,-0.40186,0.85498,17,30,178,88
40180,0.23023,0.33569,0.93628,17,30,178,88
40200,0.17114,0.3645,0.9541,17,30,178,88
40220,-0.09106,-0.44263,0.95459,17,30,178,88
40240,0.03686,-0.39648,0.96753,17,30,178,88
40260,0.31787,0.29248,0.94141,17,30,178,88
40280,0.33691,0.09863,0.94214,17,30,178,88
40300,0.00903,-0.38355,0.96777,17,30,178,88
40320,-0.16773,-0.4314,0.92651,17,30,178,88
40340,0.25977,0.17676,0.99316,17,30,178,88
40360,-0.16797,-0.43189,0.92334,17,30,178,88
40380,-0.18994,-0.40161,0.94165,17,30,178,88
40400,-0.1792,-0.41919,0.94678,17,30,178,88
40420,0.01709,-0.36426,0.97827,17,30,178,88
40440,-0.15845,-0.47607,0.90137,17,30,178,88
40460,-0.17505,-0.4577600000000001,0.93481,17,30,178,88
40480,0.17139,0.37036,0.94409,17,30,178,88
40500,0.20459,0.31641,0.96265,17,30,178,88
40520,-0.16382,-0.43823,0.93237,17,30,178,88
40540,0.17188,0.36865,0.94946,17,30,178,88
40560,-0.2085,-0.46606,0.8901399999999999,17,30,178,88
40580,0.23413,0.2959,0.97192,17,30,178,88
40600,-0.06128,-0.43189,0.95142,17,30,178,88
40620,0.02002,-0.38135,0.96899,17,30,178,88
40640,-0.11987,-0.36352,0.94434,17,30,178,88
40660,-0.21265,-0.44141,0.89722,17,30,178,88
40680,-0.13574,-0.36865,0.96313,17,30,178,88
40700,0.29541,0.1709,0.98169,17,30,178,88
40720,0.29102,0.16895,0.96777,17,30,178,88
40740,0.33154,0.30249,0.91602,17,30,178,88
40760,0.03418,-0.38916,0.96997,17,30,178,88
40780,0.0332,-0.35449,0.99023,17,30,178,88
40800,-0.17944,-0.42578,0.9231,17,30,178,88
40820,-0.05566,-0.42944,0.94434,17,30,178,88
40840,0.30664,0.25977,0.95142,17,30,178,88
40860,-0.1640599999999999,-0.40845,0.93481,17,30,178,88
40880,0.20093,0.27954,0.98047,17,30,178,88
40900,0.19336,0.35645,0.94482,17,30,178,88
40920,0.17773,0.37134,0.93359,17,30,178,88
40940,0.02197,-0.35547,0.99097,17,30,178,88
40960,-0.02368,-0.38355,0.98779,17,30,178,88
40980,0.17578,0.23023,1.0159,17,30,178,88
41000,-0.27124,-0.38696,0.91724,17,30,178,88
41020,-0.1831,-0.4118600000000001,0.93726,17,30,178,88
41040,0.34473,0.34058,0.88623,17,30,178,88
41060,-0.19238,-0.39038,0.93188,17,30,178,88
41080,0.29492,0.15356,0.97583,17,30,178,88
41100,0.2356,0.31714,0.94946,17,30,178,88
41120,0.02661,-0.3877,0.96777,17,30,178,88
41140,-0.21484,-0.4643600000000001,0.9248,17,30,178,88
41160,-0.12695,-0.2898,0.9812,17,30,178,88
41180,-0.12598,-0.29565,0.97925,18,62,151,76
41200,-0.00342,-0.38306,0.97461,18,62,151,76
41220,-0.00293,-0.36865,0.95117,18,62,151,76
41240,0.17627,0.35205,0.94458,18,62,151,76
41260,0.17188,0.36914,0.94019,18,62,151,76
41280,-0.0822799999999999,-0.41431,0.94971,18,62,151,76
41300,0.03931,-0.354,0.97583,18,62,151,76
41320,-0.06885,-0.40771,0.94409,18,62,151,76
41340,0.17627,0.35718,0.94946,18,62,151,76
41360,0.1377,0.33374,0.96118,18,62,151,76
41380,-0.14209,-0.42749,0.91553,18,62,151,76
41400,0.02759,-0.39209,0.95972,18,62,151,76
41420,0.39502,0.18408,0.96313,18,62,151,76
41440,0.00049,-0.37256,1.0066,18,62,151,76
41460,0.20508,0.34644,0.92944,18,62,151,76
41480,0.25439,0.17554,0.99292,18,62,151,76
41500,0.26636,0.1897,0.98315,18,62,151,76
41520,0.26489,0.17236,0.98291,18,62,151,76
41540,-0.1272,-0.42627,0.93506,18,62,151,76
41560,-0.1062,-0.40015,0.95386,18,62,151,76
41580,0.2019,0.28247,0.9585,18,62,151,76
41600,0.17456,0.31494,0.96265,18,62,151,76
41620,0.0249,-0.35254,0.97144,18,62,151,76
41640,0.19019,0.27954,0.97803,18,62,151,76
41660,0.3877,0.1391599999999999,0.96045,18,62,151,76
41680,-0.19067,-0.40771,0.92407,18,62,151,76
41700,-0.19263,-0.3977,0.91748,18,62,151,76
41720,0.02808,-0.37524,0.96606,18,62,151,76
41740,0.30884,0.30127,0.93262,18,62,151,76
41760,-0.18726,-0.42163,0.94043,18,62,151,76
41780,0.17017,0.36768,0.9458,18,62,151,76
41800,0.09815,-0.2395,1.011,18,62,151,76
41820,0.00024,-0.41455,0.99756,18,62,151,76
41840,0.21753,0.39697,0.91577,18,62,151,76
41860,0.32202,0.3728,0.90869,18,62,151,76
41880,-0.15967,-0.39258,0.94824,18,62,151,76
41900,0.19727,0.27637,0.97412,18,62,151,76
41920,0.02881,-0.39185,0.98852,18,62,151,76
41940,0.19336,0.32886,0.95117,18,62,151,76
41960,-0.1789599999999999,-0.42188,0.92895,18,62,151,76
41980,-0.1665,-0.47144,0.90381,18,62,151,76
42000,-0.17432,-0.46948,0.8989299999999999,18,62,151,76
42020,0.37427,0.21191,0.9292,18,62,151,76
42040,-0.15479,-0.35645,0.94092,18,62,151,76
42060,0.37695,0.17285,0.95605,18,62,151,76
42080,0.28027,0.1831,0.99316,18,62,151,76
42100,0.1340299999999999,0.31665,0.96338,18,62,151,76
42120,-0.17065,-0.4265100000000001,0.90967,18,62,151,76
42140,0.19336,0.35571,0.94849,18,62,151,76
42160,-0.1853,-0.4624,0.88379,18,62,151,76
42180,-0.08911,-0.37573,0.96606,18,62,151,76
42200,-0.03345,-0.42114,0.93823,18,62,151,76
42220,-0.13232,-0.37793,0.9458,18,62,151,76
42240,0.19922,0.27222,0.97485,18,62,151,76
42260,-0.20483,-0.4314,0.9458,18,62,151,76
42280,0.02856,-0.35498,0.96387,18,62,151,76
42300,0.16895,0.36401,0.948,18,62,151,76
42320,0.271,0.16748,0.98218,18,62,151,76
42340,0.37598,0.1648,0.9419,18,62,151,76
42360,-0.0896,-0.40381,0.95776,18,62,151,76
42380,0.03662,-0.35352,0.99243,18,62,151,76
42400,0.24292,0.21851,1.0046,18,62,151,76
42420,-0.21484,-0.4643600000000001,0.9248,18,62,151,76
42440,0.16943,0.38086,0.94605,18,62,151,76
42460,0.04004,-0.38818,0.95898,18,62,151,76
42480,0.27686,0.18335,0.97485,18,62,151,76
42500,0.33838,0.32666,0.9231,18,62,151,76
42520,0.01196,-0.37305,0.96387,18,62,151,76
42540,-0.18188,-0.40308,0.93457,18,62,151,76
42560,0.26343,0.16138,1.0557,18,62,151,76
42580,0.04297,-0.17554,1.0132,18,62,151,76
42600,-0.18408,-0.4118600000000001,0.94116,18,62,151,76
42620,-0.05664,-0.45068,0.94287,18,62,151,76
42640,0.00952,-0.37744,0.96216,18,62,151,76
42660,0.21094,0.34985,0.94092,18,62,151,76
42680,0.19385,0.33545,0.94873,18,62,151,76
42700,-0.15918,-0.40601,0.9292,18,62,151,76
42720,0.25024,0.16773,0.9856,18,62,151,76
42740,0.0332,-0.35449,0.99023,18,62,151,76
42760,0.03101,-0.33545,0.97022,18,62,151,76
42780,0.01196,-0.39819,0.96997,18,62,151,76
42800,-0.20581,-0.39575,0.93603,18,62,151,76
42820,-0.15283,-0.25684,0.99487,18,62,151,76
42840,0.20117,0.36401,0.9375,18,62,151,76
42860,-0.01929,-0.43994,0.95483,18,62,151,76
42880,0.01294,-0.38745,0.95459,18,62,151,76
42900,0.21509,0.30395,0.95752,18,62,151,76
42920,0.31128,0.30786,0.93384,18,62,151,76
42940,-0.19385,-0.39575,0.95117,18,62,151,76
42960,0.1023,-0.23975,1.0005,18,62,151,76
42980,0.0293,-0.38379,0.97144,18,62,151,76
43000,0.03735,-0.38989,0.95679,18,62,151,76
43020,0.14502,0.28589,0.97827,18,62,151,76
43040,0.2793,0.16699,0.98877,18,62,151,76
43060,-0.16504,-0.49121,0.8999,18,62,151,76
43080,-0.15503,-0.38745,0.95215,18,62,151,76
43100,-0.00977,-0.34985,0.97315,18,62,151,76
43120,0.03101,-0.37988,0.97022,18,62,151,76
43140,0.30005,0.26929,0.94898,18,62,151,76
43160,0.04565,-0.36304,0.9707,18,62,151,76
43180,0.32886,0.38379,0.8894,18,62,151,76
43200,0.0139199999999999,-0.35352,0.98267,18,62,151,76
43220,-0.19678,-0.48438,0.8938,18,62,151,76
43240,-0.18237,-0.43335,0.91235,18,62,151,76
43260,-0.11841,-0.28418,0.98438,18,62,151,76
43280,0.02051,-0.35718,0.97046,18,62,151,76
43300,0.24121,0.35254,0.97461,18,62,151,76
43320,0.19678,0.35718,0.94482,18,62,151,76
43340,0.06592,-0.2627,1.0022,18,62,151,76
43360,0.17163,0.36523,0.94653,18,62,151,76
43380,-0.19214,-0.40283,0.95703,18,62,151,76
43400,0.36108,0.14355,0.95093,18,62,151,76
43420,0.06152,-0.38086,1.0034,18,62,151,76
43440,0.28076,0.22583,0.97388,18,62,151,76
43460,0.40332,0.11426,0.9585,18,62,151,76
43480,0.03223,-0.39477,0.96094,18,62,151,76
43500,0.14624,0.29419,0.97437,18,62,151,76
43520,-0.19287,-0.41309,0.93603,18,62,151,76
43540,-0.22168,-0.44605,0.9082,18,62,151,76
43560,-0.15527,-0.46143,0.91382,18,62,151,76
43580,0.03955,-0.36963,0.98145,18,62,151,76
43600,0.2627,0.1665,0.98438,18,62,151,76
43620,0.16211,0.32739,0.94995,18,62,151,76
43640,0.25391,0.35425,0.93872,18,62,151,76
43660,0.26953,0.17725,0.98291,18,62,151,76
43680,0.19092,0.36304,0.948,18,62,151,76
43700,-0.06616,-0.45313,0.94678,18,62,151,76
43720,0.00659,-0.36963,0.96899,18,62,151,76
43740,0.32373,0.33398,0.91602,19,21,172,56
43760,-0.03223,-0.42505,0.94458,19,21,172,56
43780,0.18652,0.37305,0.927,19,21,172,56
43800,-0.17578,-0.4104,0.94971,19,21,172,56
43820,0.31665,0.27661,0.94165,19,21,172,56
43840,0.32446,0.24609,0.96728,19,21,172,56
43860,-0.04785,-0.43604,0.95239,19,21,172,56
43880,0.33862,0.3479,0.90869,19,21,172,56
43900,-0.06177,-0.43652,0.93921,19,21,172,56
43920,0.16309,0.34888,0.95117,19,21,172,56
43940,0.28125,0.16821,0.97998,19,21,172,56
43960,-0.05395,-0.43359,0.94116,19,21,172,56
43980,0.36206,0.12744,0.97241,19,21,172,56
44000,0.05347,-0.4118600000000001,0.95093,19,21,172,56
44020,-0.16773,-0.42285,0.92407,19,21,172,56
44040,0.01172,-0.37085,0.95825,19,21,172,56
44060,0.03101,-0.38428,0.97315,19,21,172,56
44080,0.03979,-0.39819,0.96313,19,21,172,56
44100,-0.17969,-0.48145,0.9006299999999999,19,21,172,56
44120,0.34424,0.1311,0.93628,19,21,172,56
44140,0.15649,0.37671,0.94287,19,21,172,56
44160,0.35791,0.09985,0.95068,19,21,172,56
44180,-0.11987,-0.427,0.91748,19,21,172,56
44200,-0.16675,-0.43945,0.93677,19,21,172,56
44220,0.10864,-0.24927,0.99048,19,21,172,56
44240,0.03809,-0.39477,0.9602,19,21,172,56
44260,-0.19019,-0.3894,0.93262,19,21,172,56
44280,0.28394,0.02734,0.94287,19,21,172,56
44300,-0.04785,-0.4375,0.93677,19,21,172,56
44320,0.05469,-0.38794,0.99121,19,21,172,56
44340,0.32227,0.3010199999999999,0.95068,19,21,172,56
44360,0.02564,-0.38623,0.97339,19,21,172,56
44380,0.26416,0.1687,0.98535,19,21,172,56
44400,0.17944,0.37207,0.95068,19,21,172,56
44420,-0.14941,-0.46338,0.9292,19,21,172,56
44440,0.33618,0.33398,0.90869,19,21,172,56
44460,0.1748,0.34497,0.95215,19,21,172,56
44480,0.18115,0.3645,0.948,19,21,172,56
44500,0.302,0.27881,0.93799,19,21,172,56
44520,0.18872,0.33105,0.95557,19,21,172,56
44540,0.19141,0.28076,0.98633,19,21,172,56
44560,-0.48267,-0.16235,0.82568,19,21,172,56
44580,0.21387,0.26685,0.97778,19,21,172,56
44600,-0.15991,-0.39087,0.94263,19,21,172,56
44620,0.01538,-0.38574,0.96777,19,21,172,56
44640,0.23633,0.34912,0.95044,19,21,172,56
44660,-0.1557599999999999,-0.46777,0.90332,19,21,172,56
44680,-0.16016,-0.47852,0.90698,19,21,172,56
44700,-0.12598,-0.29565,0.97925,19,21,172,56
44720,-0.17969,-0.48169,0.8967299999999999,19,21,172,56
44740,-0.02417,-0.4314,0.93652,19,21,172,56
44760,0.16382,0.33374,0.95288,19,21,172,56
44780,0.20727,0.28394,0.9812,19,21,172,56
44800,-0.18701,-0.41016,0.94385,19,21,172,56
44820,0.2749,0.18921,0.97974,19,21,172,56
44840,-0.09106,-0.44263,0.95459,19,21,172,56
44860,0.1792,0.35547,0.93359,19,21,172,56
44880,0.05542,-0.36011,0.9707,19,21,172,56
44900,0.11206,0.25561,1.0256,19,21,172,56
44920,0.03931,-0.39819,0.97192,19,21,172,56
44940,0.01807,-0.39282,0.96631,19,21,172,56
44960,0.18359,0.35205,0.94482,19,21,172,56
44980,-0.05908,-0.4497100000000001,0.94067,19,21,172,56
45000,0.31714,0.38208,0.8911100000000001,19,21,172,56
45020,0.29468,0.15796,0.98096,19,21,172,56
45040,0.19922,0.23584,0.8916,19,21,172,56
45060,0.37573,0.2124,0.94019,19,21,172,56
45080,0.03686,-0.39014,0.96191,19,21,172,56
45100,-0.16821,-0.40576,0.9419,19,21,172,56
45120,0.03711,-0.29175,0.99097,19,21,172,56
45140,-0.1655299999999999,-0.39966,0.9331,19,21,172,56
45160,0.18115,0.36743,0.93652,19,21,172,56
45180,-0.0979,-0.38428,1.0168,19,21,172,56
45200,0.32056,0.31299,0.92285,19,21,172,56
45220,0.04565,-0.38184,0.96704,19,21,172,56
45240,0.19775,0.29712,0.97339,19,21,172,56
45260,0.01221,-0.38965,0.9707,19,21,172,56
45280,0.01709,-0.34814,0.98901,19,21,172,56
45300,0.0708,-0.38184,0.96899,19,21,172,56
45320,-0.04053,-0.43384,0.95142,19,21,172,56
45340,-0.1687,-0.41553,0.93652,19,21,172,56
45360,-0.01953,-0.34399,0.98999,19,21,172,56
45380,0.04004,-0.35156,0.97217,19,21,172,56
45400,0.31226,0.29834,0.93408,19,21,172,56
45420,0.05469,-0.36816,0.97998,19,21,172,56
45440,0.26416,0.17627,0.99268,19,21,172,56
45460,0.26196,0.16821,0.98413,19,21,172,56
45480,0.24707,0.1643099999999999,1.0042,19,21,172,56
45500,-0.20581,-0.39575,0.93603,19,21,172,56
45520,0.0144,-0.35913,0.97632,19,21,172,56
45540,0.29883,0.20068,0.97388,19,21,172,56
45560,-0.20532,-0.4479999999999999,0.90674,19,21,172,56
45580,0.1330599999999999,0.29663,0.97925,19,21,172,56
45600,-0.03247,-0.44019,0.94824,19,21,172,56
45620,0.2041,0.34717,0.95142,19,21,172,56
45640,-0.14868,-0.3252,1.0247,19,21,172,56
45660,-0.18237,-0.44214,0.90552,19,21,172,56
45680,-0.0529799999999999,-0.50415,0.74512,19,21,172,56
45700,0.02954,-0.3977,0.96777,19,21,172,56
45720,-0.15259,-0.38232,0.94629,19,21,172,56
45740,0.02026,-0.35547,0.97095,19,21,172,56
45760,0.33716,0.37109,0.91309,19,21,172,56
45780,0.18896,0.34595,0.94312,19,21,172,56
45800,0.2019,0.22656,0.9729,19,21,172,56
45820,0.18359,0.38696,0.94263,19,21,172,56
45840,0.0144,-0.34863,0.97754,19,21,172,56
45860,0.18335,0.28467,0.95923,19,21,172,56
45880,0.03711,-0.3938,0.96509,19,21,172,56
45900,0.26489,0.18188,0.97949,19,21,172,56
45920,0.02783,-0.19165,1.0142,19,21,172,56
45940,0.20361,0.27246,0.97852,19,21,172,56
45960,-0.09644,-0.4231,0.94946,19,21,172,56
45980,0.27124,0.06738,0.99658,19,21,172,56
46000,-0.16333,-0.44922,0.90918,19,21,172,56
46020,-0.1189,-0.29639,0.99268,19,21,172,56
46040,-0.1272,-0.36963,0.96387,19,21,172,56
46060,-0.12964,-0.41821,0.95288,19,21,172,56
46080,-0.15942,-0.43799,0.91992,19,21,172,56
46100,-0.02222,-0.44458,0.94946,19,21,172,56
46120,-0.12524,-0.27954,0.9917,20,41,186,66
46140,0.26416,0.16919,0.99512,20,41,186,66
46160,0.15991,0.37939,0.92871,20,41,186,66
46180,0.30664,0.31519,0.92773,20,41,186,66
46200,-0.17261,-0.31519,0.98096,20,41,186,66
46220,0.01856,-0.36426,0.98315,20,41,186,66
46240,-0.16992,-0.43042,0.9314,20,41,186,66
46260,0.26514,0.177,0.9873,20,41,186,66
46280,-0.03418,-0.4248,0.9436,20,41,186,66
46300,0.03369,-0.41626,0.9541,20,41,186,66
46320,0.03247,-0.37231,0.97437,20,41,186,66
46340,0.1936,0.34595,0.95215,20,41,186,66
46360,-0.12817,-0.41113,0.91748,20,41,186,66
46380,-0.1958,-0.40723,0.93603,20,41,186,66
46400,0.02515,-0.34229,0.97754,20,41,186,66
46420,0.2697699999999999,0.17725,0.99243,20,41,186,66
46440,0.29883,0.17261,0.96631,20,41,186,66
46460,0.05151,-0.36426,0.96606,20,41,186,66
46480,0.1958,0.33887,0.95142,20,41,186,66
46500,0.02564,-0.35669,0.97339,20,41,186,66
46520,0.00024,-0.38208,0.97559,20,41,186,66
46540,-0.06348,-0.37842,1.0356,20,41,186,66
46560,-0.1748,-0.40186,0.93018,20,41,186,66
46580,-0.20727,-0.45068,0.90503,20,41,186,66
46600,0.13159,0.3103,0.96826,20,41,186,66
46620,0.31641,0.33203,0.93091,20,41,186,66
46640,-0.19751,-0.44531,0.95923,20,41,186,66
46660,-0.17407,-0.47485,0.8830600000000001,20,41,186,66
46680,0.18188,0.36352,0.93555,20,41,186,66
46700,0.18408,0.34302,0.94409,20,41,186,66
46720,-0.15039,-0.4082,0.94824,20,41,186,66
46740,0.25244,0.19019,0.97412,20,41,186,66
46760,0.31519,0.29932,0.94312,20,41,186,66
46780,-0.00244,-0.38989,0.96265,20,41,186,66
46800,0.15625,0.35449,0.95435,20,41,186,66
46820,0.08814,-0.35498,0.9668,20,41,186,66
46840,0.24463,0.22803,1.0425,20,41,186,66
46860,0.20605,0.29077,0.95923,20,41,186,66
46880,-0.20239,-0.48633,0.89136,20,41,186,66
46900,0.23926,0.2561,0.96313,20,41,186,66
46920,-0.15381,-0.39526,0.92773,20,41,186,66
46940,0.16797,0.37598,0.94263,20,41,186,66
46960,0.31177,0.33081,0.92651,20,41,186,66
46980,-0.05884,-0.41235,0.97974,20,41,186,66
47000,0.16162,0.35938,0.94409,20,41,186,66
47020,0.18823,0.3418,0.96362,20,41,186,66
47040,-0.16089,-0.39551,0.94165,20,41,186,66
47060,0.18188,0.36182,0.9353,20,41,186,66
47080,-0.15698,-0.46094,0.88989,20,41,186,66
47100,-0.05908,-0.45264,0.92578,20,41,186,66
47120,0.32471,0.38574,0.90137,20,41,186,66
47140,0.0874,-0.2456,1.0122,20,41,186,66
47160,0.36865,0.21021,0.9436,20,41,186,66
47180,0.16089,0.20752,0.93115,20,41,186,66
47200,-0.08398,-0.43652,0.94605,20,41,186,66
47220,0.38721,0.177,0.9458,20,41,186,66
47240,0.33398,0.36255,0.89844,20,41,186,66
47260,-0.13037,-0.42749,0.93164,20,41,186,66
47280,-0.19141,-0.40064,0.94214,20,41,186,66
47300,-0.1652799999999999,-0.4743600000000001,0.91968,20,41,186,66
47320,0.07568,-0.36035,0.98535,20,41,186,66
47340,-0.04175,-0.43872,0.93506,20,41,186,66
47360,0.35449,0.09253,0.97412,20,41,186,66
47380,0.02393,-0.3916,0.96045,20,41,186,66
47400,0.36939,0.21533,0.93652,20,41,186,66
47420,-0.16138,-0.46973,0.92285,20,41,186,66
47440,0.15967,0.3252,0.95435,20,41,186,66
47460,0.18823,0.27075,0.97388,20,41,186,66
47480,0.00488,-0.43189,0.94898,20,41,186,66
47500,0.19556,0.36987,0.93481,20,41,186,66
47520,0.03955,-0.37573,0.98364,20,41,186,66
47540,0.17529,0.3291,0.94849,20,41,186,66
47560,-0.18774,-0.49341,0.88525,20,41,186,66
47580,0.02344,-0.36621,1.0044,20,41,186,66
47600,0.04932,-0.37354,0.97998,20,41,186,66
47620,-0.18091,-0.39722,0.96728,20,41,186,66
47640,-0.05127,-0.4231,0.94898,20,41,186,66
47660,0.18335,0.36401,0.94165,20,41,186,66
47680,0.29761,0.17505,0.9773,20,41,186,66
47700,0.26904,0.13989,0.99585,20,41,186,66
47720,0.18677,0.40064,0.92602,20,41,186,66
47740,-0.15942,-0.43799,0.91992,20,41,186,66
47760,-0.15332,-0.41895,0.93555,20,41,186,66
47780,-0.04443,-0.46704,0.92895,20,41,186,66
47800,-0.03101,-0.36939,0.93359,20,41,186,66
47820,-0.12891,-0.40601,0.8989299999999999,20,41,186,66
47840,0.04126,-0.39893,0.95581,20,41,186,66
47860,0.20215,0.35913,0.93945,20,41,186,66
47880,-0.18628,-0.37744,0.93774,20,41,186,66
47900,0.19434,0.32666,0.95166,20,41,186,66
47920,0.26563,0.18237,0.9873,20,41,186,66
47940,-0.06592,-0.44849,0.92895,20,41,186,66
47960,0.26074,0.1748,0.99853,20,41,186,66
47980,0.09741,-0.24365,1.0173,20,41,186,66
48000,-0.1787099999999999,-0.4021,0.94458,20,41,186,66
48020,-0.15381,-0.37695,0.95532,20,41,186,66
48040,-0.24854,-0.41138,0.93188,20,41,186,66
48060,0.37256,0.13574,0.93628,20,41,186,66
48080,0.02905,-0.38306,0.96069,20,41,186,66
48100,-0.18994,-0.42944,0.92773,20,41,186,66
48120,0.16943,0.36182,0.93018,20,41,186,66
48140,-0.03711,-0.42334,0.94653,20,41,186,66
48160,0.40112,0.14282,0.93262,20,41,186,66
48180,0.16333,0.32446,0.948,20,41,186,66
48200,-0.14917,-0.4350600000000001,0.92334,20,41,186,66
48220,0.19214,0.36499,0.93872,20,41,186,66
48240,0.28784,0.1735799999999999,0.97803,20,41,186,66
48260,0.02808,-0.38843,0.98267,20,41,186,66
48280,-0.12817,-0.37988,0.96655,20,41,186,66
48300,0.00708,-0.38989,0.91455,20,41,186,66
48320,0.26318,0.17627,0.98267,20,41,186,66
48340,0.271,0.2793,0.95972,20,41,186,66
48360,-0.0874,-0.44482,0.9248,20,41,186,66
48380,-0.01953,-0.43481,0.94019,20,41,186,66
48400,0.11743,0.25244,1.0029,20,41,186,66
48420,0.02588,-0.36133,0.96338,20,41,186,66
48440,-0.43335,-0.32959,0.86011,20,41,186,66
48460,0.37012,0.12329,0.9668,21,53,156,74
48480,-0.177,-0.37646,0.94946,21,53,156,74
48500,-0.15039,-0.48975,0.88159,21,53,156,74
48520,0.30347,0.28125,0.95361,21,53,156,74
48540,-0.18481,-0.43359,0.92993,21,53,156,74
48560,-0.18799,-0.4751,0.90723,21,53,156,74
48580,-0.01074,-0.43091,0.94141,21,53,156,74
48600,0.31934,0.26733,0.94312,21,53,156,74
48620,0.29077,0.16699,0.97437,21,53,156,74
48640,-0.2478,-0.43921,0.91309,21,53,156,74
48660,0.13818,0.3010199999999999,0.97949,21,53,156,74
48680,0.03467,-0.38818,0.97144,21,53,156,74
48700,-0.05859,-0.36304,0.93579,21,53,156,74
48720,-0.15771,-0.37842,0.94531,21,53,156,74
48740,0.00659,-0.39233,0.97461,21,53,156,74
48760,-0.14209,-0.37012,0.95532,21,53,156,74
48780,0.09375,-0.23755,1.0051,21,53,156,74
48800,-0.1919,-0.3877,0.92993,21,53,156,74
48820,0.21338,0.34253,0.94898,21,53,156,74
48840,-0.00977,-0.34985,0.97315,21,53,156,74
48860,0.29419,0.16333,0.97925,21,53,156,74
48880,0.25977,0.26172,0.98071,21,53,156,74
48900,-0.1543,-0.3864800000000001,0.95361,21,53,156,74
48920,0.00366,-0.35571,0.97485,21,53,156,74
48940,0.05054,-0.3864800000000001,0.9646,21,53,156,74
48960,0.19678,0.3501,0.95093,21,53,156,74
48980,0.04077,-0.26099,1.0437,21,53,156,74
49000,0.26538,0.32983,0.92944,21,53,156,74
49020,0.00488,-0.28735,0.99902,21,53,156,74
49040,-0.11597,-0.3864800000000001,0.94702,21,53,156,74
49060,0.20093,0.29004,0.97705,21,53,156,74
49080,-0.15234,-0.48511,0.8925799999999999,21,53,156,74
49100,-0.18579,-0.49023,0.8855,21,53,156,74
49120,0.1377,0.28857,0.97949,21,53,156,74
49140,0.33398,0.34473,0.90454,21,53,156,74
49160,0.14502,0.24292,1.0208,21,53,156,74
49180,0.36133,0.21094,0.95996,21,53,156,74
49200,0.12451,-0.29541,1.0527,21,53,156,74
49220,0.31396,0.37256,0.88403,21,53,156,74
49240,-0.1652799999999999,-0.3894,0.94434,21,53,156,74
49260,0.17236,0.3667,0.94214,21,53,156,74
49280,0.21167,0.28125,0.97144,21,53,156,74
49300,-0.16235,-0.40649,0.93872,21,53,156,74
49320,0.30371,0.26807,0.94385,21,53,156,74
49340,0.0105,-0.37329,0.98511,21,53,156,74
49360,-0.1936,-0.40942,0.94702,21,53,156,74
49380,0.26343,0.18481,0.9917,21,53,156,74
49400,0.33398,0.36255,0.89844,21,53,156,74
49420,-0.07568,-0.45898,0.91357,21,53,156,74
49440,0.17822,0.25391,0.98706,21,53,156,74
49460,-0.18555,-0.40234,0.94775,21,53,156,74
49480,-0.03564,-0.43335,0.95093,21,53,156,74
49500,0.04834,-0.39844,0.96387,21,53,156,74
49520,0.37744,0.21191,0.94067,21,53,156,74
49540,-0.15942,-0.39477,0.94898,21,53,156,74
49560,0.28442,0.08447,0.99658,21,53,156,74
49580,-0.04565,-0.44849,0.93701,21,53,156,74
49600,0.01685,-0.35205,0.97754,21,53,156,74
49620,-0.19238,-0.45264,0.91455,21,53,156,74
49640,-0.03711,-0.4331100000000001,0.93164,21,53,156,74
49660,-0.17969,-0.41626,0.94727,21,53,156,74
49680,0.18457,0.32007,0.95435,21,53,156,74
49700,-0.22119,-0.46167,0.90918,21,53,156,74
49720,0.13623,0.36865,0.94092,21,53,156,74
49740,0.25366,0.1814,0.9978,21,53,156,74
49760,-0.17432,-0.46948,0.8989299999999999,21,53,156,74
49780,-0.28345,-0.44824,0.90356,21,53,156,74
49800,0.271,0.18213,0.98096,21,53,156,74
49820,-0.21777,-0.47144,0.90503,21,53,156,74
49840,0.14307,0.28955,0.98169,21,53,156,74
49860,0.1709,0.3728,0.94775,21,53,156,74
49880,0.01245,-0.36914,0.97485,21,53,156,74
49900,0.1958,0.35742,0.94092,21,53,156,74
49920,0.01953,-0.34033,0.98511,21,53,156,74
49940,0.40381,0.2771,0.90869,21,53,156,74
49960,0.38599,0.1499,0.98706,21,53,156,74
49980,0.1897,0.36475,0.94336,21,53,156,74
50000,-0.12891,-0.37695,0.9541,21,53,156,74
50020,-0.21216,-0.46948,0.8986799999999999,21,53,156,74
50040,-0.03345,-0.42114,0.93823,21,53,156,74
50060,0.01099,-0.36987,0.98999,21,53,156,74
50080,-0.17017,-0.40771,0.94019,21,53,156,74
50100,-0.14136,-0.39917,0.94434,21,53,156,74
50120,-0.16382,-0.38477,0.9602,21,53,156,74
50140,0.18018,0.32861,0.95288,21,53,156,74
50160,-0.05566,-0.40332,0.95435,21,53,156,74
50180,0.31641,0.2981,0.93774,21,53,156,74
50200,0.05664,-0.34619,0.97559,21,53,156,74
50220,-0.0551799999999999,-0.44385,0.93897,21,53,156,74
50240,0.32324,0.32373,0.93213,21,53,156,74
50260,0.18384,0.36621,0.94409,21,53,156,74
50280,0.04907,-0.38965,0.96728,21,53,156,74
50300,0.03906,-0.40649,0.9541,21,53,156,74
50320,-0.05786,-0.45142,0.92773,21,53,156,74
50340,-0.2289999999999999,-0.41895,0.94067,21,53,156,74
50360,0.17285,0.36499,0.94287,21,53,156,74
50380,0.14038,0.30493,0.94434,21,53,156,74
50400,0.00977,-0.3811,0.95923,21,53,156,74
50420,-0.05444,-0.43774,0.92383,21,53,156,74
50440,-0.1875,-0.40479,0.94019,21,53,156,74
50460,-0.13184,-0.42017,0.96216,21,53,156,74
50480,-0.12427,-0.3977,0.95435,21,53,156,74
50500,0.34961,0.35303,0.90259,21,53,156,74
50520,0.18823,0.27588,0.97974,21,53,156,74
50540,0.22778,0.34473,0.9458,21,53,156,74
50560,-0.15698,-0.46094,0.88989,21,53,156,74
50580,0.1789599999999999,0.37427,0.95972,21,53,156,74
50600,0.02612,-0.39331,0.98096,21,53,156,74
50620,0.01709,-0.39819,0.96045,21,53,156,74
50640,0.03345,-0.31567,0.9668,21,53,156,74
50660,0.16968,0.375,0.95068,21,53,156,74
50680,0.26807,0.17212,0.99805,21,53,156,74
50700,0.31689,0.32959,0.93262,21,53,156,74
50720,0.18604,0.38208,0.94214,21,53,156,74
50740,0.19922,0.33496,0.95386,21,53,156,74
50760,0.02148,-0.33691,0.97339,21,53,156,74
50780,-0.05249,-0.36865,0.95923,21,53,156,74
50800,-0.11914,-0.37524,0.95874,21,53,156,74
50820,0.20532,0.29053,0.98071,21,53,156,74
50840,0.33984,0.18555,0.97095,21,53,156,74
50860,-0.03345,-0.44287,0.92554,21,53,156,74
50880,0.00098,-0.36572,0.96777,21,53,156,74
50900,-0.12744,-0.35205,0.96118,21,53,156,74
50920,-0.0376,-0.42602,0.9541,21,53,156,74
50940,-0.01904,-0.4353,0.9502,21,53,156,74
50960,0.04053,-0.34082,0.97266,21,53,156,74
50980,0.19385,0.33716,0.9563,21,53,156,74
51000,0.09741,-0.24365,1.0173,21,53,156,74
51020,0.01489,-0.39404,0.96265,21,53,156,74
51040,-0.05835,-0.40283,0.95654,21,53,156,74
51060,0.36401,0.12817,0.94653,21,53,156,74
51080,0.27856,0.17139,0.98291,21,53,156,74
51100,0.28418,0.17944,0.9541,21,53,156,74
51120,-0.01538,-0.3418,0.99683,21,53,156,74
51140,-0.1560099999999999,-0.42847,0.93701,21,53,156,74
51160,0.0,-0.38745,0.9956,21,53,156,74
51180,-0.17554,-0.46997,0.9003899999999999,21,53,156,74
51200,-0.1665,-0.4663100000000001,0.90381,21,53,156,74
51220,0.39233,0.11377,0.93286,21,53,156,74
51240,-0.11523,-0.29077,0.98975,21,53,156,74
51260,0.24146,0.36475,0.94092,22,46,190,80
51280,0.03345,-0.36255,0.97852,22,46,190,80
51300,0.24756,0.25732,0.97022,22,46,190,80
51320,0.3523,0.12891,0.97119,22,46,190,80
51340,-0.1311,-0.34961,0.95898,22,46,190,80
51360,0.19214,0.36499,0.93872,22,46,190,80
51380,-0.09229,-0.39185,0.95825,22,46,190,80
51400,-0.03247,-0.41748,0.94946,22,46,190,80
51420,0.29468,0.18481,0.97803,22,46,190,80
51440,-0.16773,-0.40649,0.94873,22,46,190,80
51460,-0.11841,-0.41431,0.94312,22,46,190,80
51480,0.03857,-0.22217,1.0032,22,46,190,80
51500,0.22144,0.34595,0.94775,22,46,190,80
51520,0.22021,0.34546,0.93994,22,46,190,80
51540,0.31714,0.2697699999999999,0.94971,22,46,190,80
51560,0.32739,0.32373,0.91821,22,46,190,80
51580,-0.1557599999999999,-0.40601,0.94263,22,46,190,80
51600,-0.2312,-0.43945,0.8891600000000001,22,46,190,80
51620,-0.13232,-0.37793,0.9458,22,46,190,80
51640,0.18945,0.34692,0.94775,22,46,190,80
51660,0.12354,-0.26831,1.0095,22,46,190,80
51680,0.26318,0.17749,0.98608,22,46,190,80
51700,-0.21851,-0.37476,0.93994,22,46,190,80
51720,0.03784,-0.39014,0.95532,22,46,190,80
51740,0.20605,0.34766,0.95752,22,46,190,80
51760,0.26416,0.17236,0.99048,22,46,190,80
51780,-0.16382,-0.40625,0.93579,22,46,190,80
51800,0.1189,0.25537,0.96216,22,46,190,80
51820,-0.05835,-0.40479,0.96118,22,46,190,80
51840,0.35815,0.20801,0.95361,22,46,190,80
51860,0.29199,0.15454,0.9856,22,46,190,80
51880,0.1474599999999999,0.35669,0.96289,22,46,190,80
51900,-0.01196,-0.43726,0.94434,22,46,190,80
51920,0.1521,0.40894,0.93262,22,46,190,80
51940,0.28613,0.17651,0.97827,22,46,190,80
51960,0.17505,0.34399,0.95727,22,46,190,80
51980,0.1709,0.35547,0.94263,22,46,190,80
52000,-0.12329,-0.28686,0.99634,22,46,190,80
52020,0.16675,0.3689,0.948,22,46,190,80
52040,0.09717,-0.24121,1.0225,22,46,190,80
52060,-0.23755,-0.42602,0.9314,22,46,190,80
52080,-0.29663,-0.62524,0.84204,22,46,190,80
52100,0.07446,-0.24536,1.0061,22,46,190,80
52120,0.20776,0.34595,0.93262,22,46,190,80
52140,-0.18066,-0.37793,0.95654,22,46,190,80
52160,0.02612,-0.3877,0.95874,22,46,190,80
52180,0.07544,-0.37573,0.9502,22,46,190,80
52200,-0.18457,-0.40479,0.93433,22,46,190,80
52220,-0.05957,-0.42749,0.94898,22,46,190,80
52240,-0.11865,-0.42407,0.93945,22,46,190,80
52260,0.17969,0.36499,0.95386,22,46,190,80
52280,-0.03857,-0.45239,0.9314,22,46,190,80
52300,-0.19263,-0.45947,0.90137,22,46,190,80
52320,-0.02539,-0.43433,0.93506,22,46,190,80
52340,0.10864,-0.22119,1.0093,22,46,190,80
52360,0.06519,-0.2207,1.0085,22,46,190,80
52380,0.36499,0.21435,0.94214,22,46,190,80
52400,0.32129,0.37036,0.8952600000000001,22,46,190,80
52420,0.20776,0.32715,0.9397,22,46,190,80
52440,0.20508,0.34644,0.92944,22,46,190,80
52460,0.00073,-0.1543,1.0591,22,46,190,80
52480,0.03686,-0.38525,0.94507,22,46,190,80
52500,0.00708,-0.39795,0.95117,22,46,190,80
52520,0.05005,-0.40869,0.94531,22,46,190,80
52540,0.08472,-0.23999,1.0015,22,46,190,80
52560,0.00244,-0.31421,0.99414,22,46,190,80
52580,0.27832,0.18872,0.97754,22,46,190,80
52600,-0.17505,-0.42529,0.92505,22,46,190,80
52620,-0.24048,-0.36865,0.91406,22,46,190,80
52640,0.03125,-0.37573,0.96777,22,46,190,80
52660,-0.16797,-0.43189,0.92334,22,46,190,80
52680,0.27881,0.16309,0.98242,22,46,190,80
52700,0.00293,-0.43433,0.95483,22,46,190,80
52720,0.27881,0.18848,0.97681,22,46,190,80
52740,0.2002,0.28931,0.97022,22,46,190,80
52760,0.31396,0.30469,0.93872,22,46,190,80
52780,-0.04932,-0.38403,0.97974,22,46,190,80
52800,0.33984,0.32715,0.91309,22,46,190,80
52820,0.02661,-0.35498,0.97315,22,46,190,80
52840,-0.03272,-0.44531,0.94898,22,46,190,80
52860,0.1735799999999999,0.33496,0.96631,22,46,190,80
52880,0.06763,-0.34033,0.99194,22,46,190,80
52900,0.19556,0.36987,0.93481,22,46,190,80
52920,-0.05591,-0.41797,0.9563,22,46,190,80
52940,-0.17749,-0.40894,0.92749,22,46,190,80
52960,-0.05542,-0.44922,0.93237,22,46,190,80
52980,-0.17212,-0.40771,0.94092,22,46,190,80
53000,-0.18604,-0.40283,0.94336,22,46,190,80
53020,0.31836,0.34277,0.91504,22,46,190,80
53040,-0.17065,-0.40039,0.94946,22,46,190,80
53060,0.18994,0.27637,0.98096,22,46,190,80
53080,0.19409,0.30981,0.96484,22,46,190,80
53100,-0.19141,-0.44629,0.92383,22,46,190,80
53120,0.00757,-0.34936,0.97803,22,46,190,80
53140,0.17725,0.36914,0.94873,22,46,190,80
