timestamp,accX,accY,accZ,Subject_ID,Age,Height_cm,Weight_kg
0,-0.96728,-0.04663,-0.08984,1,32,163,97
20,-0.927,-0.03882,-0.27075,1,32,163,97
40,-0.86035,-0.09399,-0.45435,1,32,163,97
60,-0.88965,0.3291,0.22876,1,32,163,97
80,-0.9209,-0.02808,0.29492,1,32,163,97
100,-0.93726,-0.20068,0.18872,1,32,163,97
120,-0.93555,-0.00415,-0.05249,1,32,163,97
140,-0.95923,-0.03223,-0.18335,1,32,163,97
160,-0.8547399999999999,-0.09936,-0.44043,1,32,163,97
180,-0.96606,-0.17773,0.1355,1,32,163,97
200,-0.91821,-0.20361,0.31714,1,32,163,97
220,-0.95435,-0.17602,0.21265,1,32,163,97
240,-0.92651,0.16382,0.21289,1,32,163,97
260,-0.91138,-0.14477,0.36426,1,32,163,97
280,-0.92139,-0.20459,0.19434,1,32,163,97
300,-0.94043,-0.04028,-0.24414,1,32,163,97
320,-0.86816,-0.12646,-0.39648,1,32,163,97
340,-0.96533,0.09229,0.21387,1,32,163,97
360,-0.93726,-0.19849,0.1423299999999999,1,32,163,97
380,-0.8762200000000001,-0.21118,0.30664,1,32,163,97
400,-0.9104,0.25561,0.20752,1,32,163,97
420,-0.94873,-0.16455,-0.12329,1,32,163,97
440,-0.95972,-0.18384,0.02515,1,32,163,97
460,-0.98584,0.1423299999999999,0.11401,1,32,163,97
480,-0.94482,-0.10205,-0.20923,1,32,163,97
500,-0.89233,-0.19727,0.32813,1,32,163,97
520,-0.93579,0.06738,-0.22144,1,32,163,97
540,-0.97192,-0.05127,-0.11865,1,32,163,97
560,-0.85913,0.33203,0.26904,1,32,163,97
580,-0.948,-0.20264,0.18359,1,32,163,97
600,-0.8833,0.32349,0.24731,1,32,163,97
620,-0.95898,-0.13843,0.10181,1,32,163,97
640,-0.95044,-0.21021,0.19336,1,32,163,97
660,-0.96582,0.05249,-0.14893,1,32,163,97
680,-0.97363,-0.19336,0.06079,1,32,163,97
700,-0.8894,0.34448,0.23193,1,32,163,97
720,-0.91333,-0.11816,-0.29346,1,32,163,97
740,-0.80347,-0.11914,-0.25928,1,32,163,97
760,-0.92285,-0.20361,0.20166,1,32,163,97
780,-0.93872,-0.20093,0.20923,1,32,163,97
800,-0.94067,-0.16065,0.30078,1,32,163,97
820,-0.96753,0.08814,0.1328099999999999,1,32,163,97
840,-0.95435,0.02832,-0.17261,1,32,163,97
860,-0.9331,-0.21484,0.16968,1,32,163,97
880,-0.90088,0.23315,0.27734,1,32,163,97
900,-0.8850100000000001,-0.03686,-0.40112,1,32,163,97
920,-0.94434,0.1652799999999999,0.20288,1,32,163,97
940,-0.8833,0.32031,0.25659,1,32,163,97
960,-0.8281299999999999,-0.04981,-0.50098,1,32,163,97
980,-0.87964,0.32105,0.22827,1,32,163,97
1000,-0.96411,-0.10425,-0.01343,1,32,163,97
1020,-0.93726,-0.0437,-0.25366,1,32,163,97
1040,-0.96533,-0.1640599999999999,0.12964,1,32,163,97
1060,-0.95923,0.03857,0.3667,1,32,163,97
1080,-0.8869600000000001,0.28638,0.26587,1,32,163,97
1100,-0.91504,-0.14477,-0.30493,1,32,163,97
1120,-0.91357,-0.00659,-0.27075,1,32,163,97
1140,-0.79688,-0.10669,-0.54419,1,32,163,97
1160,-0.94531,0.15796,0.2273,1,32,163,97
1180,-0.94116,-0.21289,0.0874,1,32,163,97
1200,-0.95898,-0.07446,-0.00855,1,32,163,97
1220,-0.94531,-0.1438,0.13843,1,32,163,97
1240,-0.94507,-0.1897,0.16748,1,32,163,97
1260,-0.93213,-0.12573,-0.16797,1,32,163,97
1280,-0.8701200000000001,-0.13184,-0.3728,1,32,163,97
1300,-0.95557,-0.19946,0.16919,1,32,163,97
1320,-0.95044,0.00732,-0.177,1,32,163,97
1340,-0.9729,0.12109,-0.1272,1,32,163,97
1360,-0.90478,0.27295,0.23633,1,32,163,97
1380,-0.85254,0.31616,0.34717,1,32,163,97
1400,-0.91675,0.0078099999999999,-0.09106,1,32,163,97
1420,-0.90869,0.00488,0.39282,1,32,163,97
1440,-0.8806200000000001,0.12671,0.36133,1,32,163,97
1460,-0.8762200000000001,0.24683,-0.30591,1,32,163,97
1480,-0.96655,0.10425,0.13843,1,32,163,97
1500,-0.90772,0.16748,-0.1709,1,32,163,97
1520,-0.94482,-0.16577,0.13623,1,32,163,97
1540,-0.87305,0.32056,0.22949,1,32,163,97
1560,-0.94141,-0.00122,-0.21558,1,32,163,97
1580,-0.91699,-0.1557599999999999,0.2832,1,32,163,97
1600,-0.93481,-0.13696,0.06787,1,32,163,97
1620,-0.94141,0.02002,-0.14307,1,32,163,97
1640,-0.9006299999999999,0.29517,0.24316,1,32,163,97
1660,-0.93897,0.16333,0.22363,1,32,163,97
1680,-0.97315,-0.04614,-0.12964,1,32,163,97
1700,-0.93652,0.13355,0.24146,1,32,163,97
1720,-0.90918,0.17773,0.33203,1,32,163,97
1740,-0.9519,0.11963,0.13037,1,32,163,97
1760,-0.94605,-0.20068,0.18286,1,32,163,97
1780,-0.94263,0.00269,-0.20044,1,32,163,97
1800,-0.948,0.1648,0.17432,1,32,163,97
1820,-0.91357,-0.18848,0.29443,1,32,163,97
1840,-0.93066,-0.1311,-0.30298,1,32,163,97
1860,-0.95435,-0.17822,0.1789599999999999,1,32,163,97
1880,-0.8894,0.31006,0.22998,1,32,163,97
1900,-0.93042,-0.1958,0.10913,1,32,163,97
1920,-0.93726,-0.0751899999999999,-0.04346,1,32,163,97
1940,-0.98584,-0.18677,0.15259,1,32,163,97
1960,-0.91504,-0.17505,0.31909,1,32,163,97
1980,-0.89404,0.29175,0.2583,1,32,163,97
2000,-0.89136,0.28589,0.24927,1,32,163,97
2020,-0.93018,-0.17017,0.23315,1,32,163,97
2040,-0.90967,-0.09815,-0.32031,1,32,163,97
2060,-0.93774,0.03467,-0.2334,1,32,163,97
2080,-0.89697,0.12988,0.39673,1,32,163,97
2100,-0.96313,-0.16626,0.10742,1,32,163,97
2120,-0.94922,0.15747,0.22632,1,32,163,97
2140,-0.95215,-0.22241,0.19971,1,32,163,97
2160,-0.93677,-0.20288,0.1831,2,51,181,80
2180,-0.91528,-0.12109,0.29639,2,51,181,80
2200,-0.94873,-0.15918,0.2697699999999999,2,51,181,80
2220,-0.74145,-0.01318,-0.6369600000000001,2,51,181,80
2240,-0.93726,0.14331,0.28906,2,51,181,80
2260,-0.96973,-0.09009,-0.12695,2,51,181,80
2280,-0.90942,0.09521,0.35205,2,51,181,80
2300,-0.8518100000000001,-0.16382,-0.44336,2,51,181,80
2320,-0.95605,-0.14111,-0.06421,2,51,181,80
2340,-0.93848,-0.0603,-0.2273,2,51,181,80
2360,-0.96606,0.00806,-0.16919,2,51,181,80
2380,-0.93457,0.10889,0.20361,2,51,181,80
2400,-0.95752,-0.10645,-0.12842,2,51,181,80
2420,-0.90869,-0.15454,0.22192,2,51,181,80
2440,-0.92749,-0.21582,0.2644,2,51,181,80
2460,-0.94824,-0.00732,-0.20313,2,51,181,80
2480,-0.91626,-0.1792,0.31055,2,51,181,80
2500,-0.94898,-0.0822799999999999,-0.15991,2,51,181,80
2520,-0.93603,-0.20313,0.18408,2,51,181,80
2540,-0.8742700000000001,0.2417,0.34448,2,51,181,80
2560,-0.74853,-0.33252,-0.44824,2,51,181,80
2580,-0.8198200000000001,-0.19507,-0.49927,2,51,181,80
2600,-0.95117,-0.0227,-0.22339,2,51,181,80
2620,-0.94092,0.18237,0.19775,2,51,181,80
2640,-0.92358,0.13843,0.22412,2,51,181,80
2660,-0.9519,0.1057099999999999,0.07422,2,51,181,80
2680,-0.9563,0.16992,-0.08472,2,51,181,80
2700,-0.85083,-0.04565,-0.46094,2,51,181,80
2720,-0.96216,-0.1474599999999999,0.11426,2,51,181,80
2740,-0.90185,0.28809,0.24976,2,51,181,80
2760,-0.93066,-0.15039,-0.24023,2,51,181,80
2780,-0.94238,-0.18579,0.1665,2,51,181,80
2800,-0.8942899999999999,0.28467,0.23145,2,51,181,80
2820,-0.96704,-0.04346,-0.12402,2,51,181,80
2840,-0.90772,0.12817,0.38892,2,51,181,80
2860,-0.78784,0.07935,-0.25586,2,51,181,80
2880,-0.95337,0.12036,0.13159,2,51,181,80
2900,-0.94629,0.07007,-0.11108,2,51,181,80
2920,-0.90088,0.18945,0.33984,2,51,181,80
2940,-0.9397,0.15405,0.20898,2,51,181,80
2960,-0.8925799999999999,0.27246,0.23267,2,51,181,80
2980,-0.95679,0.00122,-0.177,2,51,181,80
3000,-0.92944,-0.0669,0.38281,2,51,181,80
3020,-0.84277,-0.13208,-0.46558,2,51,181,80
3040,-0.92432,-0.00391,0.31226,2,51,181,80
3060,-0.9419,-0.12378,-0.27686,2,51,181,80
3080,-0.88208,-0.01807,-0.33179,2,51,181,80
3100,-0.95557,-0.19946,0.16919,2,51,181,80
3120,-0.8781700000000001,0.32471,0.24048,2,51,181,80
3140,-0.90283,-0.21045,0.31689,2,51,181,80
3160,-0.93481,-0.02661,-0.23364,2,51,181,80
3180,-0.96826,-0.10986,0.03906,2,51,181,80
3200,-0.88794,0.22998,0.34741,2,51,181,80
3220,-0.94824,-0.22656,0.2002,2,51,181,80
3240,-0.8999,0.27564,0.21973,2,51,181,80
3260,-0.87598,0.06641,-0.42188,2,51,181,80
3280,-0.94092,-0.2395,0.11939,2,51,181,80
3300,-0.95776,-0.21484,0.08887,2,51,181,80
3320,-0.90845,0.2771,0.25098,2,51,181,80
3340,-0.94946,-0.20386,0.19702,2,51,181,80
3360,-0.94336,-0.14966,-0.20825,2,51,181,80
3380,-0.93677,-0.20313,0.16065,2,51,181,80
3400,-0.9519,0.1023,0.15454,2,51,181,80
3420,-0.95264,0.11548,0.18872,2,51,181,80
3440,-0.96362,0.09229,0.13525,2,51,181,80
3460,-0.88379,0.32105,0.22241,2,51,181,80
3480,-0.94067,-0.22437,0.20923,2,51,181,80
3500,-0.93188,0.1560099999999999,0.25439,2,51,181,80
3520,-0.95386,0.1001,0.21997,2,51,181,80
3540,-0.8630399999999999,-0.09424,-0.44263,2,51,181,80
3560,-0.94751,0.08716,0.18921,2,51,181,80
3580,-0.88403,0.32935,0.23633,2,51,181,80
3600,-0.9148,-0.11377,-0.31226,2,51,181,80
3620,-0.92822,0.13989,0.23291,2,51,181,80
3640,-0.95727,-0.10205,-0.34546,2,51,181,80
3660,-0.92529,0.08154,0.25415,2,51,181,80
3680,-0.94214,-0.21777,0.20288,2,51,181,80
3700,-0.8859899999999999,0.31006,0.21191,2,51,181,80
3720,-0.90137,-0.10156,-0.34497,2,51,181,80
3740,-0.94409,-0.21216,0.19751,2,51,181,80
3760,-0.88379,-0.04321,-0.37012,2,51,181,80
3780,-0.94092,-0.15991,0.1814,2,51,181,80
3800,-0.92749,-0.23779,0.08667,2,51,181,80
3820,-0.96094,-0.13794,0.16138,2,51,181,80
3840,-0.94556,-0.02661,-0.03052,2,51,181,80
3860,-0.93945,-0.18896,0.1748,2,51,181,80
3880,-0.95727,0.06934,-0.11816,2,51,181,80
3900,-0.8981899999999999,0.22485,-0.23218,2,51,181,80
3920,-0.94775,-0.16846,0.19605,2,51,181,80
3940,-0.8945299999999999,0.27881,0.23462,2,51,181,80
3960,-0.94605,-0.20068,0.18286,2,51,181,80
3980,-0.95142,-0.19605,0.14575,2,51,181,80
4000,-0.86279,0.39551,0.1499,2,51,181,80
4020,-0.8652299999999999,0.35132,0.26636,2,51,181,80
4040,-0.94605,-0.01929,-0.20508,2,51,181,80
4060,-0.97339,-0.1853,0.02954,2,51,181,80
4080,-0.93603,0.15283,0.25073,2,51,181,80
4100,-0.93164,-0.06665,0.05737,2,51,181,80
4120,-0.97852,-0.14795,-0.14307,2,51,181,80
4140,-0.91846,-0.19653,0.30957,2,51,181,80
4160,-0.9519,-0.06665,-0.12842,2,51,181,80
4180,-0.93701,-0.09033,-0.24365,2,51,181,80
4200,-0.8811,-0.1023,-0.40771,2,51,181,80
4220,-0.70898,-0.09619,-0.6672399999999999,2,51,181,80
4240,-0.95508,0.09497,0.20874,2,51,181,80
4260,-0.95239,-0.15723,0.1438,2,51,181,80
4280,-0.90356,0.23901,0.2356,2,51,181,80
4300,-0.95264,-0.14941,0.14648,2,51,181,80
4320,-0.94922,-0.18408,0.15894,2,51,181,80
4340,-0.79907,-0.00073,-0.55102,2,51,181,80
4360,-0.93701,0.17505,0.22754,2,51,181,80
4380,-0.96143,-0.1787099999999999,0.1543,2,51,181,80
4400,-0.9375,0.16235,0.18457,2,51,181,80
4420,-0.93652,0.19092,0.18994,2,51,181,80
4440,-0.94214,-0.21777,0.20288,2,51,181,80
4460,-0.89331,-0.19751,-0.32056,2,51,181,80
4480,-0.9187,0.15015,0.16309,2,51,181,80
4500,-0.95093,-0.16602,0.07105,2,51,181,80
4520,-0.89404,0.24097,0.26123,2,51,181,80
4540,-0.9353,0.06348,-0.07568,2,51,181,80
4560,-0.88623,0.27905,0.29565,2,51,181,80
4580,-0.8523,-0.08691,-0.43799,2,51,181,80
4600,-0.97144,0.00586,-0.03809,2,51,181,80
4620,-0.94385,-0.2146,0.18628,3,38,171,61
4640,-0.93237,-0.17188,0.27808,3,38,171,61
4660,-0.93164,-0.20435,0.15991,3,38,171,61
4680,-0.94019,0.1438,0.271,3,38,171,61
4700,-0.96558,-0.07471,-0.0481,3,38,171,61
4720,-0.90747,0.17676,0.32764,3,38,171,61
4740,-0.86182,-0.08374,-0.44482,3,38,171,61
4760,-0.9126,-0.20288,0.34058,3,38,171,61
4780,-0.9563,0.10083,0.07202,3,38,171,61
4800,-0.89502,0.29907,0.24023,3,38,171,61
4820,-0.84619,-0.20313,0.27759,3,38,171,61
4840,-0.81763,0.34424,0.22412,3,38,171,61
4860,-0.94263,-0.19653,0.03979,3,38,171,61
4880,-0.93066,0.17114,0.21558,3,38,171,61
4900,-0.96484,-0.073,-0.14331,3,38,171,61
4920,-0.92383,-0.0861799999999999,0.30615,3,38,171,61
4940,-0.9353,0.14722,0.39014,3,38,171,61
4960,-0.87866,0.12354,0.39355,3,38,171,61
4980,-0.94751,-0.21924,0.1853,3,38,171,61
5000,-0.97534,-0.10474,-0.06372,3,38,171,61
5020,-0.92895,0.13574,0.32983,3,38,171,61
5040,-0.95557,-0.07764,-0.20874,3,38,171,61
5060,-0.95532,0.06738,0.18286,3,38,171,61
5080,-0.88623,-0.14307,-0.35645,3,38,171,61
5100,-0.8762200000000001,0.00562,-0.3418,3,38,171,61
5120,-0.94116,-0.11865,-0.25708,3,38,171,61
5140,-0.8977,0.3335,0.25195,3,38,171,61
5160,-0.92139,-0.0957,-0.27344,3,38,171,61
5180,-0.8471700000000001,0.03979,-0.4802300000000001,3,38,171,61
5200,-0.96069,-0.17334,0.06128,3,38,171,61
5220,-0.91504,-0.17676,0.32593,3,38,171,61
5240,-0.94287,0.14331,0.22632,3,38,171,61
5260,-0.94995,0.10449,0.07202,3,38,171,61
5280,-0.8916,-0.17017,-0.29004,3,38,171,61
5300,-0.8962399999999999,-0.09155,-0.37231,3,38,171,61
5320,-0.97485,-0.16504,-0.25635,3,38,171,61
5340,-0.88428,0.1958,0.37524,3,38,171,61
5360,-0.9003899999999999,0.29004,0.26611,3,38,171,61
5380,-0.93555,0.15796,0.19116,3,38,171,61
5400,-0.8855,0.3186,0.25146,3,38,171,61
5420,-0.8701200000000001,-0.09839,-0.43555,3,38,171,61
5440,-0.92676,0.1626,0.36206,3,38,171,61
5460,-0.96851,-0.15161,0.11377,3,38,171,61
5480,-0.91724,0.25317,0.24976,3,38,171,61
5500,-0.94971,-0.18579,0.19898,3,38,171,61
5520,-0.94043,-0.22363,0.20557,3,38,171,61
5540,-0.93677,-0.15503,0.13745,3,38,171,61
5560,-0.95044,0.11475,0.19702,3,38,171,61
5580,-0.9397,0.17456,0.19092,3,38,171,61
5600,-0.8869600000000001,0.33887,0.23828,3,38,171,61
5620,-0.89917,-0.1738299999999999,0.28882,3,38,171,61
5640,-0.96265,-0.12622,0.0564,3,38,171,61
5660,-0.9126,0.28247,0.21704,3,38,171,61
5680,-0.93066,-0.21582,0.20093,3,38,171,61
5700,-0.9209,-0.20557,0.29468,3,38,171,61
5720,-0.94336,-0.19898,0.21313,3,38,171,61
5740,-0.90478,0.17725,0.32324,3,38,171,61
5760,-0.96289,-0.2439,-0.1789599999999999,3,38,171,61
5780,-0.96216,-0.20972,0.17285,3,38,171,61
5800,-0.88818,0.12695,-0.36914,3,38,171,61
5820,-0.81958,-0.1438,-0.5039100000000001,3,38,171,61
5840,-0.87671,0.2207,-0.19751,3,38,171,61
5860,-0.93774,-0.20288,0.17847,3,38,171,61
5880,-0.94043,-0.21606,0.18994,3,38,171,61
5900,-0.9148,0.11206,0.33374,3,38,171,61
5920,-0.9314,0.16235,0.18726,3,38,171,61
5940,-0.94116,-0.22388,0.17847,3,38,171,61
5960,-0.91357,-0.10718,-0.25342,3,38,171,61
5980,-0.8884299999999999,0.16846,0.33398,3,38,171,61
6000,-0.94287,-0.22754,0.18823,3,38,171,61
6020,-0.93115,0.05054,0.26636,3,38,171,61
6040,-0.94873,-0.19043,0.16065,3,38,171,61
6060,-0.89551,0.2898,0.23999,3,38,171,61
6080,-0.96851,0.11597,0.15527,3,38,171,61
6100,-0.93433,-0.00122,-0.19946,3,38,171,61
6120,-0.9248,-0.00073,-0.08423,3,38,171,61
6140,-0.93555,0.01269,-0.24072,3,38,171,61
6160,-0.8894,0.30981,0.22607,3,38,171,61
6180,-0.94434,-0.19409,0.16626,3,38,171,61
6200,-0.94336,-0.1709,0.15869,3,38,171,61
6220,-1.0281,-0.00488,-0.01074,3,38,171,61
6240,-0.8742700000000001,0.34009,0.24072,3,38,171,61
6260,-0.94946,0.1145,0.18604,3,38,171,61
6280,-0.86011,-0.10059,-0.44629,3,38,171,61
6300,-0.95117,-0.14722,0.17969,3,38,171,61
6320,-0.94214,-0.1655299999999999,0.20068,3,38,171,61
6340,-0.9082,0.23364,0.23438,3,38,171,61
6360,-0.9624,0.0778799999999999,0.11914,3,38,171,61
6380,-0.90991,0.28467,0.20361,3,38,171,61
6400,-0.8781700000000001,0.34155,0.21924,3,38,171,61
6420,-0.96118,-0.19751,0.1416,3,38,171,61
6440,-0.94238,-0.20679,0.14429,3,38,171,61
6460,-0.94092,-0.18408,0.18701,3,38,171,61
6480,-0.94043,0.17529,0.19238,3,38,171,61
6500,-0.92676,-0.1626,-0.2854,3,38,171,61
6520,-0.95435,-0.17188,0.15869,3,38,171,61
6540,-0.94922,0.10156,0.19385,3,38,171,61
6560,-0.95874,-0.14063,0.1789599999999999,3,38,171,61
6580,-0.93066,0.03784,0.30689,3,38,171,61
6600,-0.88745,-0.04541,-0.3833,3,38,171,61
6620,-0.94849,-0.05054,-0.26245,3,38,171,61
6640,-0.89331,-0.19751,-0.32056,3,38,171,61
6660,-0.88013,0.32568,0.24683,3,38,171,61
6680,-0.94971,-0.22095,0.04053,3,38,171,61
6700,-0.63208,0.44702,0.16089,3,38,171,61
6720,-0.95361,0.08154,0.20874,3,38,171,61
6740,-0.8850100000000001,0.33301,0.24731,3,38,171,61
6760,-0.96338,-0.11816,0.13525,3,38,171,61
6780,-0.94238,0.0737299999999999,0.27197,3,38,171,61
6800,-0.8198200000000001,-0.19507,-0.49927,3,38,171,61
6820,-0.93921,-0.16577,0.1648,3,38,171,61
6840,-0.94824,-0.2146,0.19946,3,38,171,61
6860,-0.95557,-0.1875,0.19605,3,38,171,61
6880,-0.95825,0.01123,-0.02856,3,38,171,61
6900,-0.90869,0.29321,0.23877,3,38,171,61
6920,-0.80176,-0.15918,-0.52881,3,38,171,61
6940,-0.94727,-0.20898,0.19751,4,41,160,76
6960,-0.9541,0.15063,0.3010199999999999,4,41,160,76
6980,-0.93335,0.06055,-0.01465,4,41,160,76
7000,-0.95215,0.09302,0.20825,4,41,160,76
7020,-0.90137,0.19898,0.35352,4,41,160,76
7040,-0.94531,0.07764,0.18628,4,41,160,76
7060,-0.8691399999999999,0.11157,0.40796,4,41,160,76
7080,-0.79785,-0.08447,-0.5524899999999999,4,41,160,76
7100,-0.95093,-0.18506,0.08814,4,41,160,76
7120,-0.96289,-0.05176,-0.17822,4,41,160,76
7140,-0.8847700000000001,0.31641,0.21899,4,41,160,76
7160,-1.0205,0.09595,0.11792,4,41,160,76
7180,-0.8588899999999999,0.04883,-0.44849,4,41,160,76
7200,-0.88159,0.31641,0.21826,4,41,160,76
7220,-0.8779299999999999,0.3335,0.25,4,41,160,76
7240,-0.95459,-0.19629,0.18213,4,41,160,76
7260,-0.88892,0.10327,-0.32227,4,41,160,76
7280,-0.94775,-0.04883,-0.2229,4,41,160,76
7300,-0.94507,-0.1652799999999999,-0.24927,4,41,160,76
7320,-0.85498,-0.0459,-0.4975600000000001,4,41,160,76
7340,-0.91162,-0.11621,-0.28686,4,41,160,76
7360,-0.87476,0.32544,0.23486,4,41,160,76
7380,-0.93921,-0.16821,0.15698,4,41,160,76
7400,-0.96094,-0.18628,0.13989,4,41,160,76
7420,-0.93286,-0.20166,0.22315,4,41,160,76
7440,-0.8920899999999999,0.27222,0.30151,4,41,160,76
7460,-0.94605,0.12012,0.15039,4,41,160,76
7480,-0.9729,0.12109,-0.1272,4,41,160,76
7500,-0.95166,-0.01416,-0.17749,4,41,160,76
7520,-0.89844,0.2915,0.21948,4,41,160,76
7540,-0.95801,-0.20117,0.18188,4,41,160,76
7560,-0.93823,-0.02246,-0.18701,4,41,160,76
7580,-0.87915,-0.06494,-0.3313,4,41,160,76
7600,-0.91553,-0.09131,-0.32593,4,41,160,76
7620,-0.94385,0.0061,-0.21387,4,41,160,76
7640,-0.90894,0.27954,0.21899,4,41,160,76
7660,-0.96069,-0.15845,0.19482,4,41,160,76
7680,-0.73975,-0.1474599999999999,-0.62695,4,41,160,76
7700,-0.97559,-0.08472,-0.05664,4,41,160,76
7720,-0.96143,-0.18066,0.01538,4,41,160,76
7740,-0.90845,0.27783,0.19629,4,41,160,76
7760,-0.9707,0.13648,0.24609,4,41,160,76
7780,-0.89795,0.28906,-0.21753,4,41,160,76
7800,-0.93848,-0.21509,0.18091,4,41,160,76
7820,-0.89185,0.3396,0.25024,4,41,160,76
7840,-0.97656,-0.04272,-0.06909,4,41,160,76
7860,-0.94702,-0.12061,0.11279,4,41,160,76
7880,-0.95508,-0.16089,0.10986,4,41,160,76
7900,-0.84839,0.0144,-0.48657,4,41,160,76
7920,-0.95972,-0.19116,0.15527,4,41,160,76
7940,-0.88818,0.28686,0.22876,4,41,160,76
7960,-0.92188,-0.1272,0.30859,4,41,160,76
7980,-0.95337,0.10083,0.20654,4,41,160,76
8000,-0.92456,-0.08496,-0.26733,4,41,160,76
8020,-0.97339,-0.23145,0.09619,4,41,160,76
8040,-0.91748,0.13818,0.36572,4,41,160,76
8060,-0.91382,0.24902,0.21631,4,41,160,76
8080,-0.97388,-0.1438,0.11548,4,41,160,76
8100,-0.88574,0.34424,0.20581,4,41,160,76
8120,-0.8959999999999999,0.15869,0.34302,4,41,160,76
8140,-0.96069,0.12036,0.12231,4,41,160,76
8160,-0.8877,0.13477,0.40454,4,41,160,76
8180,-0.94263,-0.20215,0.22827,4,41,160,76
8200,-0.948,-0.1958,0.20801,4,41,160,76
8220,-0.92139,0.16797,0.19312,4,41,160,76
8240,-0.89941,-0.13501,-0.25317,4,41,160,76
8260,-0.88965,0.3291,0.22876,4,41,160,76
8280,-0.9003899999999999,0.29639,0.24658,4,41,160,76
8300,-0.93237,0.16577,0.17676,4,41,160,76
8320,-0.89697,0.10059,-0.34375,4,41,160,76
8340,-0.8845200000000001,0.31567,0.23438,4,41,160,76
8360,-0.948,0.15161,0.1853,4,41,160,76
8380,-0.8901399999999999,-0.15308,-0.37329,4,41,160,76
8400,-0.92969,-0.2063,0.20801,4,41,160,76
8420,-0.8928200000000001,0.11475,-0.30371,4,41,160,76
8440,-0.97388,-0.18042,0.1423299999999999,4,41,160,76
8460,-0.94873,-0.23291,0.14014,4,41,160,76
8480,-0.93384,-0.16162,-0.27637,4,41,160,76
8500,-0.8449700000000001,0.33716,0.22827,4,41,160,76
8520,-0.88574,0.34424,0.20581,4,41,160,76
8540,-0.94971,-0.14014,-0.04785,4,41,160,76
8560,-0.93921,-0.20996,0.18677,4,41,160,76
8580,-0.89233,0.3186,0.27905,4,41,160,76
8600,-0.93335,-0.177,0.15063,4,41,160,76
8620,-0.92383,0.17261,0.17163,4,41,160,76
8640,-0.9602,-0.21777,0.07422,4,41,160,76
8660,-0.94092,-0.11646,0.26929,4,41,160,76
8680,-0.90601,0.12671,0.3728,4,41,160,76
8700,-0.89404,0.29321,0.24097,4,41,160,76
8720,-0.8630399999999999,-0.07471,-0.4479999999999999,4,41,160,76
8740,-0.9148,-0.07007,-0.31616,4,41,160,76
8760,-0.95093,0.10278,0.06299,4,41,160,76
8780,-0.77612,-0.13721,-0.56348,4,41,160,76
8800,-0.86426,-0.10425,-0.44263,4,41,160,76
8820,-0.94727,-0.14111,0.10107,4,41,160,76
8840,-0.94043,0.14722,0.21753,4,41,160,76
8860,-0.93897,-0.10693,-0.01221,4,41,160,76
8880,-0.8789100000000001,0.32544,0.24341,4,41,160,76
8900,-0.66382,-0.02759,-0.73364,4,41,160,76
8920,-0.94092,-0.11646,0.26929,4,41,160,76
8940,-0.88745,-0.04541,-0.3833,4,41,160,76
8960,-0.95483,-0.08569,-0.14429,4,41,160,76
8980,-0.8772,-0.0581,-0.43726,4,41,160,76
9000,-0.95044,-0.13892,0.10205,4,41,160,76
9020,-0.8855,0.34082,0.2312,4,41,160,76
9040,-0.9003899999999999,-0.21338,-0.20996,4,41,160,76
9060,-0.9585,0.05176,-0.02808,5,48,184,80
9080,-0.88355,0.32983,0.24634,5,48,184,80
9100,-0.94653,-0.21265,0.17456,5,48,184,80
9120,-0.8947700000000001,-0.12866,-0.35498,5,48,184,80
9140,-0.89941,0.08667,0.34595,5,48,184,80
9160,-0.94824,-0.00732,-0.20313,5,48,184,80
9180,-0.9419,-0.20825,0.18726,5,48,184,80
9200,-0.95044,-0.15259,0.04956,5,48,184,80
9220,-0.9519,0.10352,0.1391599999999999,5,48,184,80
9240,-0.93897,-0.18921,0.19092,5,48,184,80
9260,-0.8847700000000001,0.25928,0.39477,5,48,184,80
9280,-0.95361,-0.12915,0.13452,5,48,184,80
9300,-0.91821,-0.13477,0.32764,5,48,184,80
9320,-0.91284,-0.19946,0.31665,5,48,184,80
9340,-0.87256,0.32764,0.23315,5,48,184,80
9360,-0.89966,0.32251,0.15894,5,48,184,80
9380,-0.90991,0.27173,0.23608,5,48,184,80
9400,-0.95313,-0.15137,0.09155,5,48,184,80
9420,-0.83496,0.07275,0.39136,5,48,184,80
9440,-0.9436,-0.18579,0.17139,5,48,184,80
9460,-0.87256,0.32715,0.22119,5,48,184,80
9480,-0.96973,-0.09009,-0.12695,5,48,184,80
9500,-0.94898,0.10083,0.0708,5,48,184,80
9520,-0.92505,-0.20264,0.01269,5,48,184,80
9540,-0.94653,0.06738,0.19263,5,48,184,80
9560,-0.91016,-0.03491,-0.2273,5,48,184,80
9580,-0.948,0.1648,0.17432,5,48,184,80
9600,-0.927,-0.21582,0.19849,5,48,184,80
9620,-0.93359,-0.21484,0.19092,5,48,184,80
9640,-0.94873,0.00195,-0.21411,5,48,184,80
9660,-0.89038,0.28369,-0.1853,5,48,184,80
9680,-0.91187,-0.13379,-0.2749,5,48,184,80
9700,-0.8906299999999999,0.1328099999999999,0.37988,5,48,184,80
9720,-0.94019,0.1543,0.21045,5,48,184,80
9740,-0.94263,0.12012,0.1474599999999999,5,48,184,80
9760,-0.81348,-0.01685,-0.43677,5,48,184,80
9780,-0.96826,-0.06592,-0.13062,5,48,184,80
9800,-0.94336,-0.18799,0.1391599999999999,5,48,184,80
9820,-0.94165,0.01831,-0.26318,5,48,184,80
9840,-0.94165,-0.1831,0.20117,5,48,184,80
9860,-0.89185,-0.04663,-0.39575,5,48,184,80
9880,-0.8847700000000001,0.3147,0.23657,5,48,184,80
9900,-0.85815,-0.08398,-0.45117,5,48,184,80
9920,-0.9126,0.0864299999999999,0.3269,5,48,184,80
9940,-0.92432,-0.00391,0.31226,5,48,184,80
9960,-0.97534,-0.10474,-0.06372,5,48,184,80
9980,-0.94507,-0.17114,0.1333,5,48,184,80
10000,-0.91821,-0.18481,0.27588,5,48,184,80
10020,-0.95898,0.07178,0.19043,5,48,184,80
10040,-0.89941,0.31348,0.23877,5,48,184,80
10060,-0.95508,0.08447,0.19653,5,48,184,80
10080,-0.67602,-0.10254,-0.68481,5,48,184,80
10100,-0.96631,-0.14697,-0.02539,5,48,184,80
10120,-0.98413,-0.17212,0.16113,5,48,184,80
10140,-0.94336,0.11231,0.21435,5,48,184,80
10160,-0.91821,-0.18481,0.29956,5,48,184,80
10180,-0.8989299999999999,0.17505,0.32715,5,48,184,80
10200,-0.94312,-0.2251,0.12671,5,48,184,80
10220,-0.88965,-0.08081,-0.35791,5,48,184,80
10240,-0.93628,-0.1648,0.28931,5,48,184,80
10260,-0.95459,-0.14941,0.09985,5,48,184,80
10280,-0.97388,-0.05664,-0.12207,5,48,184,80
10300,-0.93433,-0.05371,0.27539,5,48,184,80
10320,-0.93091,0.1735799999999999,0.18262,5,48,184,80
10340,-0.90185,0.13818,0.34448,5,48,184,80
10360,-0.95239,-0.15723,0.1438,5,48,184,80
10380,-0.93579,-0.22339,0.1958,5,48,184,80
10400,-0.94946,-0.14697,0.09375,5,48,184,80
10420,-0.9502,-0.21118,0.07764,5,48,184,80
10440,-0.88574,0.28418,0.23633,5,48,184,80
10460,-0.94629,-0.15674,0.01001,5,48,184,80
10480,-0.96143,-0.20288,0.18286,5,48,184,80
10500,-0.88159,0.3396,0.25195,5,48,184,80
10520,-0.94043,-0.19751,0.19727,5,48,184,80
10540,-0.9602,-0.15723,0.14209,5,48,184,80
10560,-0.98267,0.11841,0.22876,5,48,184,80
10580,-0.93628,-0.18481,0.17554,5,48,184,80
10600,-0.92065,-0.12915,-0.28345,5,48,184,80
10620,-0.94727,-0.21143,0.05127,5,48,184,80
10640,-0.95727,-0.10205,-0.34546,5,48,184,80
10660,-0.93994,-0.17407,0.24927,5,48,184,80
10680,-0.93897,-0.16333,0.25293,5,48,184,80
10700,-0.95313,0.10913,0.11719,5,48,184,80
10720,-0.88818,0.28686,0.22876,5,48,184,80
10740,-0.95239,0.14575,0.31494,5,48,184,80
10760,-0.93213,0.1582,0.17822,5,48,184,80
10780,-0.87476,0.2898,0.23608,5,48,184,80
10800,-0.88745,0.3313,0.25049,5,48,184,80
10820,-0.61743,-0.14014,-0.75293,5,48,184,80
10840,-0.95386,-0.19409,0.16455,5,48,184,80
10860,-0.94312,-0.20459,0.20288,5,48,184,80
10880,-0.8737799999999999,-0.13648,-0.38208,5,48,184,80
10900,-0.8869600000000001,0.32129,0.23682,5,48,184,80
10920,-0.8928200000000001,0.11475,-0.30371,5,48,184,80
10940,-0.9353,-0.22656,0.19409,5,48,184,80
10960,-0.89722,0.2146,0.29395,5,48,184,80
10980,-0.94238,-0.20068,0.1814,5,48,184,80
11000,-0.93652,-0.21435,0.20215,5,48,184,80
11020,-0.9419,-0.19434,0.17725,5,48,184,80
11040,-0.96143,-0.18066,0.01538,5,48,184,80
11060,-0.948,-0.19409,0.19385,5,48,184,80
11080,-0.94824,-0.22656,0.2002,5,48,184,80
11100,-0.8789100000000001,0.39868,0.19336,5,48,184,80
11120,-0.83496,0.07275,0.39136,5,48,184,80
11140,-0.88208,0.10913,0.39087,5,48,184,80
11160,-0.85156,-0.00342,-0.42212,5,48,184,80
11180,-0.8855,-0.21753,0.3501,5,48,184,80
11200,-0.9541,-0.18555,0.16089,5,48,184,80
11220,-0.8928200000000001,0.30493,0.2124,5,48,184,80
11240,-0.94043,-0.19946,0.18408,6,47,183,50
11260,-0.96069,-0.1294,-0.19922,6,47,183,50
11280,-1.0444,-0.01123,-0.0686,6,47,183,50
11300,-0.8789100000000001,0.32178,0.23023,6,47,183,50
11320,-0.8493700000000001,-0.08545,-0.44605,6,47,183,50
11340,-0.93628,0.07812,-0.2356,6,47,183,50
11360,-0.8737799999999999,0.00024,-0.4375,6,47,183,50
11380,-0.93945,-0.21851,0.0459,6,47,183,50
11400,-0.8798799999999999,-0.13574,-0.41528,6,47,183,50
11420,-0.8877,0.33618,0.25439,6,47,183,50
11440,-0.90185,-0.11694,-0.40186,6,47,183,50
11460,-0.9104,0.25561,0.20752,6,47,183,50
11480,-0.93872,0.07812,-0.13867,6,47,183,50
11500,-0.93384,-0.24023,0.18433,6,47,183,50
11520,-0.93774,-0.20288,0.17847,6,47,183,50
11540,-0.95605,-0.20703,0.0852,6,47,183,50
11560,-0.89185,0.32764,0.23071,6,47,183,50
11580,-0.92773,-0.10278,-0.28784,6,47,183,50
11600,-0.8945299999999999,0.29077,0.22998,6,47,183,50
11620,-0.9314,0.16235,0.18726,6,47,183,50
11640,-0.8757299999999999,0.33154,0.22974,6,47,183,50
11660,-0.96704,0.09936,0.12134,6,47,183,50
11680,-0.92236,-0.20068,0.177,6,47,183,50
11700,-0.8691399999999999,0.35352,0.19727,6,47,183,50
11720,-0.90772,-0.1438,-0.29907,6,47,183,50
11740,-0.94605,-0.04321,-0.18628,6,47,183,50
11760,-0.97339,-0.10645,-0.02466,6,47,183,50
11780,-0.875,0.22656,0.32593,6,47,183,50
11800,-0.91846,-0.18774,0.10986,6,47,183,50
11820,-0.95727,-0.03125,-0.1394,6,47,183,50
11840,-0.95679,0.0918,0.20947,6,47,183,50
11860,-0.97412,-0.03052,-0.06079,6,47,183,50
11880,-0.97803,0.06152,-0.03857,6,47,183,50
11900,-0.9043,0.09204,-0.31128,6,47,183,50
11920,-0.96313,0.09229,0.12036,6,47,183,50
11940,-0.95727,-0.18262,0.05908,6,47,183,50
11960,-0.94287,-0.23071,0.17432,6,47,183,50
11980,-0.95508,-0.2456,0.13892,6,47,183,50
12000,-0.93555,-0.11206,-0.19141,6,47,183,50
12020,-0.8449700000000001,-0.09741,-0.40576,6,47,183,50
12040,-0.89575,0.26367,0.28125,6,47,183,50
12060,-0.89331,0.3291,0.2605,6,47,183,50
12080,-0.87671,0.3811,0.18799,6,47,183,50
12100,-0.8825700000000001,0.31909,0.24536,6,47,183,50
12120,-0.86792,0.26416,0.32568,6,47,183,50
12140,-0.91748,0.1477099999999999,0.36841,6,47,183,50
12160,-0.96924,-0.2373,-0.22192,6,47,183,50
12180,-0.92114,-0.18433,0.32007,6,47,183,50
12200,-0.95508,0.11231,0.15039,6,47,183,50
12220,-1.0056,-0.20972,0.17334,6,47,183,50
12240,-0.95288,-0.03516,-0.18018,6,47,183,50
12260,-0.92529,-0.19287,0.30493,6,47,183,50
12280,-0.96655,0.07105,0.2439,6,47,183,50
12300,-0.8718299999999999,0.37817,0.16821,6,47,183,50
12320,-0.93603,0.15283,0.25073,6,47,183,50
12340,-0.93286,-0.0874,-0.26782,6,47,183,50
12360,-0.96216,-0.13184,0.12964,6,47,183,50
12380,-0.96265,-0.14038,0.10962,6,47,183,50
12400,-0.98413,-0.12891,0.10376,6,47,183,50
12420,-0.87598,0.39355,0.18115,6,47,183,50
12440,-0.87476,0.29346,0.29688,6,47,183,50
12460,-0.93652,-0.20142,0.21777,6,47,183,50
12480,-0.94946,-0.18921,0.19141,6,47,183,50
12500,-0.90503,0.00171,0.31641,6,47,183,50
12520,-0.8742700000000001,0.32813,0.23657,6,47,183,50
12540,-0.9043,0.25293,0.27417,6,47,183,50
12560,-0.95239,0.11694,0.12451,6,47,183,50
12580,-0.92358,-0.06567,0.354,6,47,183,50
12600,-0.8855,0.31323,0.28076,6,47,183,50
12620,-0.89844,0.30347,0.22876,6,47,183,50
12640,-0.91821,-0.02441,-0.26416,6,47,183,50
12660,-0.92651,-0.20947,0.19873,6,47,183,50
12680,-0.85864,-0.0852,-0.4519,6,47,183,50
12700,-0.94092,-0.22144,0.20239,6,47,183,50
12720,-0.95801,-0.1294,-0.06299,6,47,183,50
12740,-0.9248,-0.18066,0.29126,6,47,183,50
12760,-0.8479,0.39502,0.17285,6,47,183,50
12780,-0.90185,0.3010199999999999,0.21899,6,47,183,50
12800,-0.8532700000000001,-0.03564,-0.4802300000000001,6,47,183,50
12820,-0.89331,-0.03125,-0.36963,6,47,183,50
12840,-0.91797,0.22315,0.16602,6,47,183,50
12860,-0.8833,0.33765,0.26636,6,47,183,50
12880,-0.8696299999999999,-0.11987,-0.4558100000000001,6,47,183,50
12900,-0.93213,0.1655299999999999,0.20996,6,47,183,50
12920,-0.90967,0.31689,-0.18555,6,47,183,50
12940,-0.91187,0.2334,0.21924,6,47,183,50
12960,-0.89795,0.30273,0.22412,6,47,183,50
12980,-0.91284,-0.18799,0.2854,6,47,183,50
13000,-0.94336,-0.19678,0.15137,6,47,183,50
13020,-0.95142,-0.08911,-0.16455,6,47,183,50
13040,-0.8781700000000001,0.30566,0.16724,6,47,183,50
13060,-0.88818,0.06494,-0.30591,6,47,183,50
13080,-0.94263,-0.00928,-0.24414,6,47,183,50
13100,-0.91699,-0.20923,0.14917,6,47,183,50
13120,-0.93384,-0.03613,-0.22974,6,47,183,50
13140,-0.93164,-0.22315,0.21167,6,47,183,50
13160,-0.96826,-0.05103,-0.11646,6,47,183,50
13180,-0.95801,-0.17139,0.00464,6,47,183,50
13200,-0.94971,-0.20898,-0.20898,6,47,183,50
13220,-0.83301,-0.11914,-0.50049,6,47,183,50
13240,-0.8833,0.33765,0.26636,6,47,183,50
13260,-0.94727,0.1582,0.18433,6,47,183,50
13280,-0.8198200000000001,-0.06201,-0.51025,6,47,183,50
13300,-0.92773,-0.21973,0.19116,6,47,183,50
13320,-0.89038,0.27808,0.2312,6,47,183,50
13340,-0.93433,0.04541,-0.25195,6,47,183,50
13360,-0.94605,0.1145,0.18555,6,47,183,50
13380,-0.93579,-0.22339,0.15527,6,47,183,50
13400,-0.9209,-0.17773,0.17676,6,47,183,50
13420,-0.89185,0.29614,0.21118,6,47,183,50
13440,-0.96265,-0.13892,0.04639,6,47,183,50
13460,-0.95142,0.11963,0.1355,6,47,183,50
13480,-0.88184,0.32617,0.23779,6,47,183,50
13500,-0.93799,-0.20874,0.20752,6,47,183,50
13520,-0.96509,0.00195,-0.14209,6,47,183,50
13540,-0.94312,-0.21094,0.14502,7,63,186,87
13560,-0.94458,-0.20776,0.21143,7,63,186,87
13580,-0.92456,-0.21851,0.1919,7,63,186,87
13600,-0.98047,0.05103,-0.15625,7,63,186,87
13620,-0.97217,-0.01782,0.05371,7,63,186,87
13640,-0.99438,-0.18335,0.14697,7,63,186,87
13660,-0.94702,-0.18628,0.17993,7,63,186,87
13680,-0.90137,0.30591,0.24414,7,63,186,87
13700,-0.90137,-0.09253,-0.32373,7,63,186,87
13720,-0.96704,0.11499,0.14722,7,63,186,87
13740,-0.90503,0.27637,0.25293,7,63,186,87
13760,-0.96387,-0.20972,0.04712,7,63,186,87
13780,-0.9668,-0.17822,0.17798,7,63,186,87
13800,-0.82715,-0.10352,-0.50098,7,63,186,87
13820,-0.74365,-0.14014,-0.6110800000000001,7,63,186,87
13840,-0.96582,0.30884,0.27319,7,63,186,87
13860,-0.94751,-0.00098,-0.23779,7,63,186,87
13880,-0.91309,0.15234,0.3728,7,63,186,87
13900,-0.9458,-0.1787099999999999,0.20264,7,63,186,87
13920,-0.8613299999999999,-0.09399,-0.42969,7,63,186,87
13940,-0.9541,-0.2124,0.05566,7,63,186,87
13960,-0.95972,-0.19116,0.15527,7,63,186,87
13980,-0.8945299999999999,0.25879,-0.13135,7,63,186,87
14000,-0.94238,0.10449,0.17773,7,63,186,87
14020,-0.94458,-0.0271,-0.19409,7,63,186,87
14040,-0.96973,-0.17676,0.06909,7,63,186,87
14060,-0.98047,-0.00806,0.12207,7,63,186,87
14080,-0.93579,0.18091,0.19092,7,63,186,87
14100,-0.94727,-0.12842,0.19287,7,63,186,87
14120,-0.91968,-0.18286,0.29028,7,63,186,87
14140,-0.9458,-0.13379,-0.07324,7,63,186,87
14160,-0.95874,-0.15283,-0.19971,7,63,186,87
14180,-0.96753,-0.03979,-0.0861799999999999,7,63,186,87
14200,-0.92676,0.03125,0.27295,7,63,186,87
14220,-0.96411,0.09668,-0.09375,7,63,186,87
14240,-0.92798,0.05835,0.30859,7,63,186,87
14260,-0.96216,0.10645,-0.10986,7,63,186,87
14280,-0.9436,0.17261,0.18628,7,63,186,87
14300,-0.9458,0.10718,0.15967,7,63,186,87
14320,-0.95288,-0.13037,0.10425,7,63,186,87
14340,-0.94775,-0.22778,0.14185,7,63,186,87
14360,-0.8398399999999999,-0.12451,-0.46973,7,63,186,87
14380,-0.90185,0.13818,0.35376,7,63,186,87
14400,-0.92529,-0.19287,0.30493,7,63,186,87
14420,-0.8608399999999999,-0.0957,-0.44434,7,63,186,87
14440,-0.93262,0.16113,0.18115,7,63,186,87
14460,-0.87915,0.31763,0.25073,7,63,186,87
14480,-0.91943,0.1897,0.35767,7,63,186,87
14500,-0.93237,0.07349,-0.25903,7,63,186,87
14520,-0.9668,-0.14893,0.10523,7,63,186,87
14540,-0.92456,-0.104,-0.26758,7,63,186,87
14560,-0.90381,-0.17602,0.24146,7,63,186,87
14580,-0.93994,-0.07886,-0.22021,7,63,186,87
14600,-0.90283,0.31909,0.15552,7,63,186,87
14620,-0.93555,0.10889,0.19629,7,63,186,87
14640,-0.94653,-0.22485,0.09229,7,63,186,87
14660,-0.96582,-0.04224,-0.17188,7,63,186,87
14680,-0.95093,0.07666,0.25855,7,63,186,87
14700,-0.94238,-0.06494,-0.30249,7,63,186,87
14720,-0.93115,-0.21753,0.21826,7,63,186,87
14740,-0.94507,-0.16309,0.1474599999999999,7,63,186,87
14760,-0.84424,0.02564,-0.51685,7,63,186,87
14780,-0.8916,0.2644,0.2417,7,63,186,87
14800,-0.93897,0.13818,0.21411,7,63,186,87
14820,-0.97046,-0.14648,0.12695,7,63,186,87
14840,-0.93897,0.15063,0.24976,7,63,186,87
14860,-0.94092,-0.2251,0.20215,7,63,186,87
14880,-0.8798799999999999,-0.13574,-0.41528,7,63,186,87
14900,-0.90478,-0.1560099999999999,-0.1687,7,63,186,87
14920,-0.93872,-0.03027,-0.15771,7,63,186,87
14940,-0.90308,0.29517,0.23364,7,63,186,87
14960,-0.95337,-0.1687,0.1787099999999999,7,63,186,87
14980,-1.0105,-0.11572,-0.00366,7,63,186,87
15000,-0.95972,0.11768,0.13599,7,63,186,87
15020,-0.90405,-0.14526,-0.36987,7,63,186,87
15040,-0.93359,0.03296,-0.16309,7,63,186,87
15060,-0.8630399999999999,-0.07471,-0.4479999999999999,7,63,186,87
15080,-0.96875,0.06763,0.15308,7,63,186,87
15100,-0.93335,-0.177,0.15063,7,63,186,87
15120,-0.9248,-0.00073,-0.08423,7,63,186,87
15140,-0.94995,0.0778799999999999,0.18774,7,63,186,87
15160,-0.98047,-0.02197,-0.00391,7,63,186,87
15180,-0.96533,-0.21802,0.06519,7,63,186,87
15200,-0.96728,-0.2146,0.21631,7,63,186,87
15220,-0.88623,0.32764,0.25024,7,63,186,87
15240,-0.72607,-0.01904,-0.65308,7,63,186,87
15260,-0.93726,-0.0751899999999999,-0.04346,7,63,186,87
15280,-0.95386,0.06494,0.19775,7,63,186,87
15300,-0.9397,-0.1814,0.15991,7,63,186,87
15320,-0.9563,-0.00928,-0.20776,7,63,186,87
15340,-0.95239,-0.1853,0.14648,7,63,186,87
15360,-0.92847,0.14868,0.35938,7,63,186,87
15380,-0.89185,-0.12451,-0.39404,7,63,186,87
15400,-0.8877,0.27686,0.26953,7,63,186,87
15420,-0.94409,-0.21509,0.18774,7,63,186,87
15440,-0.95483,-0.15063,0.11328,7,63,186,87
15460,-0.90356,0.30176,0.23755,7,63,186,87
15480,-0.8916,0.28174,0.30615,7,63,186,87
15500,-0.87329,0.33252,0.23511,7,63,186,87
15520,-0.92456,-0.21289,0.17236,7,63,186,87
15540,-0.95142,-0.1106,-0.24048,7,63,186,87
15560,-0.92944,0.03882,-0.2456,7,63,186,87
15580,-0.87305,-0.09351,-0.42212,7,63,186,87
15600,-0.92334,-0.0708,-0.23047,7,63,186,87
15620,-0.94824,-0.00366,-0.22437,7,63,186,87
15640,-0.83594,-0.01782,-0.52563,7,63,186,87
15660,-0.96167,-0.23193,0.1814,7,63,186,87
15680,-0.94116,-0.22388,0.17847,7,63,186,87
15700,-0.93897,0.15771,0.20703,7,63,186,87
15720,-0.93945,0.03857,-0.05347,7,63,186,87
15740,-0.88892,0.25391,0.23975,7,63,186,87
15760,-0.9104,-0.04077,-0.35327,7,63,186,87
15780,-0.90894,-0.23462,0.22876,7,63,186,87
15800,-0.95093,-0.20337,0.04028,7,63,186,87
15820,-0.97315,-0.04614,-0.12964,7,63,186,87
15840,-0.94434,0.10107,0.17017,7,63,186,87
15860,-0.93335,-0.19653,0.18823,7,63,186,87
15880,-0.94702,-0.1919,0.19751,7,63,186,87
15900,-0.75024,-0.06274,-0.62549,7,63,186,87
15920,-0.91675,0.1333,-0.2478,7,63,186,87
15940,-0.927,-0.03516,0.30444,7,63,186,87
15960,-0.93872,-0.15454,0.25171,7,63,186,87
15980,-0.8938,0.32813,0.26953,7,63,186,87
16000,-0.9502,-0.18188,0.19238,8,23,175,57
16020,-0.8947700000000001,-0.13013,-0.29419,8,23,175,57
16040,-0.89746,-0.05786,-0.32324,8,23,175,57
16060,-0.90601,-0.16309,-0.31543,8,23,175,57
16080,-0.91699,0.0529799999999999,-0.23145,8,23,175,57
16100,-0.94873,0.10962,0.19727,8,23,175,57
16120,-0.93945,-0.19946,0.198,8,23,175,57
16140,-0.96094,0.05249,0.15063,8,23,175,57
16160,-0.8869600000000001,0.05786,0.32471,8,23,175,57
16180,-0.95142,0.16235,0.2373,8,23,175,57
16200,-0.96631,-0.14697,-0.02539,8,23,175,57
16220,-0.94238,-0.16504,0.10547,8,23,175,57
16240,-0.88135,0.14868,0.4043,8,23,175,57
16260,-0.91577,-0.05444,0.36523,8,23,175,57
16280,-0.97046,0.0737299999999999,0.20898,8,23,175,57
16300,-0.9668,-0.17749,0.13843,8,23,175,57
16320,-0.96191,-0.12207,0.02734,8,23,175,57
16340,-0.94531,0.15796,0.2273,8,23,175,57
16360,-1.1421,-0.22583,0.2207,8,23,175,57
16380,-0.87231,0.25708,0.33301,8,23,175,57
16400,-0.94971,-0.18579,0.19898,8,23,175,57
16420,-0.93897,0.17017,0.19849,8,23,175,57
16440,-0.92261,-0.11084,-0.22437,8,23,175,57
16460,-0.8630399999999999,-0.07471,-0.4479999999999999,8,23,175,57
16480,-0.9419,-0.20825,0.18726,8,23,175,57
16500,-0.93701,-0.20557,0.19336,8,23,175,57
16520,-0.92456,-0.23901,0.23535,8,23,175,57
16540,-0.97119,-0.16821,0.03345,8,23,175,57
16560,-0.8911100000000001,0.32422,0.25,8,23,175,57
16580,-0.97046,-0.17505,0.11157,8,23,175,57
16600,-0.93823,0.12744,0.24976,8,23,175,57
16620,-0.9519,-0.23291,0.11353,8,23,175,57
16640,-0.9003899999999999,0.29004,0.26611,8,23,175,57
16660,-0.90942,0.09521,0.35205,8,23,175,57
16680,-0.8833,0.33765,0.26636,8,23,175,57
16700,-0.96094,-0.18408,0.10815,8,23,175,57
16720,-0.88818,0.29907,0.21582,8,23,175,57
16740,-0.8938,0.32959,0.23193,8,23,175,57
16760,-0.95679,0.10474,-0.15771,8,23,175,57
16780,-0.8916,0.30786,0.21777,8,23,175,57
16800,-0.91553,0.14209,0.35596,8,23,175,57
16820,-0.8772,-0.0581,-0.43726,8,23,175,57
16840,-0.80176,0.01978,-0.55469,8,23,175,57
16860,-0.96875,-0.18335,0.13452,8,23,175,57
16880,-0.87134,0.31836,0.22827,8,23,175,57
16900,-0.90356,-0.03369,-0.34058,8,23,175,57
16920,-0.94458,-0.1897,0.17578,8,23,175,57
16940,-0.90772,0.052,-0.22241,8,23,175,57
16960,-1.0105,-0.11572,-0.00366,8,23,175,57
16980,-0.91333,-0.11621,-0.43018,8,23,175,57
17000,-0.9646,-0.17993,0.12402,8,23,175,57
17020,-0.93213,0.16016,0.20605,8,23,175,57
17040,-0.8999,-0.21289,0.36743,8,23,175,57
17060,-0.94067,0.03149,0.3322699999999999,8,23,175,57
17080,-0.86816,0.20605,-0.39526,8,23,175,57
17100,-0.95093,-0.03467,-0.20215,8,23,175,57
17120,-0.94214,-0.19434,0.16455,8,23,175,57
17140,-0.91773,-0.19458,0.18604,8,23,175,57
17160,-0.95166,-0.19678,0.17236,8,23,175,57
17180,-0.95825,-0.12695,0.17432,8,23,175,57
17200,-0.91382,-0.18384,0.26538,8,23,175,57
17220,-0.91968,-0.24341,0.19898,8,23,175,57
17240,-0.93262,0.14624,0.24512,8,23,175,57
17260,-0.94263,-0.16675,0.12036,8,23,175,57
17280,-0.95898,-0.17725,0.11255,8,23,175,57
17300,-0.94141,0.15918,0.2146,8,23,175,57
17320,-0.90894,-0.2688,-0.26074,8,23,175,57
17340,-0.96289,-0.05615,-0.10645,8,23,175,57
17360,-0.79883,-0.02661,-0.5734899999999999,8,23,175,57
17380,-0.94531,0.08032,0.19287,8,23,175,57
17400,-0.94043,0.17163,-0.03369,8,23,175,57
17420,-0.91089,-0.2334,0.21997,8,23,175,57
17440,-0.9231,0.17407,0.19263,8,23,175,57
17460,-0.96362,-0.01489,0.00024,8,23,175,57
17480,-0.94482,-0.16333,0.08887,8,23,175,57
17500,-0.8762200000000001,0.39136,0.17798,8,23,175,57
17520,-0.98023,-0.13794,-0.10547,8,23,175,57
17540,-0.8303200000000001,-0.12988,-0.49268,8,23,175,57
17560,-0.96118,0.11572,0.12354,8,23,175,57
17580,-0.92798,-0.04785,-0.26123,8,23,175,57
17600,-0.90601,0.19898,0.32349,8,23,175,57
17620,-0.89795,-0.03955,-0.33765,8,23,175,57
17640,-0.93237,0.16577,0.17676,8,23,175,57
17660,-0.95288,0.08081,0.15015,8,23,175,57
17680,-0.92773,0.11108,-0.24219,8,23,175,57
17700,-0.95532,-0.04394,-0.19116,8,23,175,57
17720,-0.94409,0.10278,0.22925,8,23,175,57
17740,-0.8894,0.36768,0.24829,8,23,175,57
17760,-0.8850100000000001,0.31885,0.24072,8,23,175,57
17780,-0.89746,0.29199,0.23926,8,23,175,57
17800,-0.9502,-0.18384,0.17749,8,23,175,57
17820,-0.90405,0.2771,0.21338,8,23,175,57
17840,-0.94849,0.08545,0.19214,8,23,175,57
17860,-0.90356,0.25708,0.22681,8,23,175,57
17880,-0.96167,-0.12988,0.11133,8,23,175,57
17900,-0.86987,0.38159,0.16821,8,23,175,57
17920,-0.95581,0.11084,0.15405,8,23,175,57
17940,-0.88745,0.33496,0.24048,8,23,175,57
17960,-1.0095,0.15454,-0.15161,8,23,175,57
17980,-0.99512,-0.17822,-0.14893,8,23,175,57
18000,-0.92114,0.02222,-0.2439,8,23,175,57
18020,-0.93433,-0.22412,0.20264,8,23,175,57
18040,-0.93018,-0.11743,-0.22974,8,23,175,57
18060,-0.94653,0.10059,0.25073,8,23,175,57
18080,-0.8901399999999999,-0.04053,-0.36206,8,23,175,57
18100,-0.98462,-0.1391599999999999,0.0437,8,23,175,57
18120,-0.8920899999999999,0.26367,0.22827,8,23,175,57
18140,-0.9541,-0.18262,0.20752,8,23,175,57
18160,-0.94751,0.16602,0.20727,8,23,175,57
18180,-0.90259,-0.03101,-0.20532,8,23,175,57
18200,-0.8952600000000001,0.28125,0.25122,8,23,175,57
18220,-0.94458,0.01782,-0.1958,8,23,175,57
18240,-0.8999,0.11499,0.42383,8,23,175,57
18260,-0.93433,0.04541,-0.25195,9,55,187,101
18280,-0.93774,-0.20288,0.17847,9,55,187,101
18300,-0.93262,-0.1560099999999999,-0.00537,9,55,187,101
18320,-0.93603,-0.15405,0.21021,9,55,187,101
18340,-0.86377,0.3125,0.31128,9,55,187,101
18360,-0.9419,-0.19434,0.17725,9,55,187,101
18380,-0.90674,-0.07422,-0.28516,9,55,187,101
18400,-0.94165,-0.21313,0.21094,9,55,187,101
18420,-0.94556,-0.19971,0.04883,9,55,187,101
18440,-0.90308,0.27637,0.23389,9,55,187,101
18460,-0.89966,0.2998,0.23901,9,55,187,101
18480,-0.96191,-0.00244,-0.11255,9,55,187,101
18500,-0.93042,-0.03247,-0.12451,9,55,187,101
18520,-0.91821,-0.2168,0.19458,9,55,187,101
18540,-0.95508,0.16626,0.18188,9,55,187,101
18560,-0.94727,-0.1787099999999999,0.18188,9,55,187,101
18580,-0.91309,0.15234,0.3728,9,55,187,101
18600,-0.93677,-0.15503,0.13745,9,55,187,101
18620,-0.63208,0.44702,0.16089,9,55,187,101
18640,-0.8640100000000001,0.29224,0.35059,9,55,187,101
18660,-0.72827,0.05029,-0.6362300000000001,9,55,187,101
18680,-0.94434,0.28052,0.25342,9,55,187,101
18700,-0.88623,0.17798,0.35986,9,55,187,101
18720,-0.93555,0.01269,-0.24072,9,55,187,101
18740,-0.95508,-0.20264,0.12109,9,55,187,101
18760,-0.8811,-0.11987,-0.39209,9,55,187,101
18780,-0.95923,0.09717,0.18555,9,55,187,101
18800,-0.96704,0.0527299999999999,-0.23096,9,55,187,101
18820,-0.92871,-0.10986,-0.2644,9,55,187,101
18840,-0.92944,-0.04639,-0.29785,9,55,187,101
18860,-0.9602,0.04346,-0.07617,9,55,187,101
18880,-0.9646,0.11841,0.1499,9,55,187,101
18900,-0.94385,-0.20215,0.1919,9,55,187,101
18920,-0.85303,-0.11816,-0.4502,9,55,187,101
18940,-0.94751,-0.19995,0.22388,9,55,187,101
18960,-0.95068,-0.19702,0.0437,9,55,187,101
18980,-0.96118,-0.14844,0.10889,9,55,187,101
19000,-0.96216,-0.14673,0.11597,9,55,187,101
19020,-0.8794,-0.0271,-0.36377,9,55,187,101
19040,-0.93921,-0.21313,0.1626,9,55,187,101
19060,-0.94116,-0.19336,0.22681,9,55,187,101
19080,-0.9646,-0.13623,0.14331,9,55,187,101
19100,-0.92676,0.06079,0.3103,9,55,187,101
19120,-0.8764700000000001,0.32275,0.22046,9,55,187,101
19140,-0.93652,0.13257,0.23852,9,55,187,101
19160,-0.95727,-0.14111,0.04688,9,55,187,101
19180,-0.95386,-0.13696,0.1875,9,55,187,101
19200,-0.90137,0.32568,0.16748,9,55,187,101
19220,-0.96289,0.02393,-0.0527299999999999,9,55,187,101
19240,-0.92725,-0.19214,0.12305,9,55,187,101
19260,-0.9375,-0.2124,0.18457,9,55,187,101
19280,-0.93384,-0.0669,-0.29443,9,55,187,101
19300,-0.8911100000000001,0.29736,0.22046,9,55,187,101
19320,-0.97119,0.07251,0.14917,9,55,187,101
19340,-0.9436,-0.18579,0.17139,9,55,187,101
19360,-0.8877,0.15137,0.33057,9,55,187,101
19380,-0.93994,-0.00635,-0.21631,9,55,187,101
19400,-0.96289,-0.05615,-0.10645,9,55,187,101
19420,-0.87964,0.34668,0.26733,9,55,187,101
19440,-0.82105,-0.12402,-0.50903,9,55,187,101
19460,-0.90625,0.30981,0.27661,9,55,187,101
19480,-0.93018,-0.13525,-0.21313,9,55,187,101
19500,-0.94751,0.0835,0.21875,9,55,187,101
19520,-0.92041,-0.17505,-0.28296,9,55,187,101
19540,-0.92358,0.29785,0.31543,9,55,187,101
19560,-0.94458,0.11182,0.14941,9,55,187,101
19580,-0.94141,-0.18506,0.18018,9,55,187,101
19600,-0.8764700000000001,0.33301,0.23242,9,55,187,101
19620,-0.94653,-0.21265,0.17456,9,55,187,101
19640,-0.94336,0.11475,0.10889,9,55,187,101
19660,-0.93921,-0.16065,0.19849,9,55,187,101
19680,-0.94043,-0.20825,0.18945,9,55,187,101
19700,-0.95972,0.0078099999999999,-0.0188,9,55,187,101
19720,-0.9502,-0.17139,0.17236,9,55,187,101
19740,-0.94849,0.09058,0.19263,9,55,187,101
19760,-0.88745,0.3186,0.24683,9,55,187,101
19780,-0.95264,-0.1648,0.24219,9,55,187,101
19800,-0.95044,-0.2395,0.21777,9,55,187,101
19820,-0.93262,-0.23169,0.22095,9,55,187,101
19840,-0.95825,0.17017,-0.07251,9,55,187,101
19860,-0.89551,0.29419,0.21777,9,55,187,101
19880,-0.69898,-0.02856,-0.69043,9,55,187,101
19900,-0.95337,-0.17798,0.1958,9,55,187,101
19920,-0.93726,0.09985,0.23706,9,55,187,101
19940,-0.95337,0.11401,0.07495,9,55,187,101
19960,-0.8789100000000001,0.36865,0.18579,9,55,187,101
19980,-0.94263,0.18286,0.21289,9,55,187,101
20000,-0.95483,-0.05859,-0.11108,9,55,187,101
20020,-0.8977,0.29663,0.24072,9,55,187,101
20040,-0.95727,-0.13892,-0.10669,9,55,187,101
20060,-0.9519,0.12085,0.15674,9,55,187,101
20080,-0.87134,-0.17432,-0.427,9,55,187,101
20100,-0.93237,-0.18896,0.21118,9,55,187,101
20120,-0.8999,0.29346,0.24414,9,55,187,101
20140,-0.93188,0.15137,0.21289,9,55,187,101
20160,-0.8584,-0.09521,-0.42188,9,55,187,101
20180,-0.94702,-0.12061,0.11279,9,55,187,101
20200,-0.92773,0.17261,0.20923,9,55,187,101
20220,-0.89941,-0.16943,0.29907,9,55,187,101
20240,-0.88355,-0.04468,-0.33838,9,55,187,101
20260,-0.94775,-0.19409,0.15967,9,55,187,101
20280,-0.92456,-0.10425,-0.21509,9,55,187,101
20300,-0.94653,-0.1831,0.16919,9,55,187,101
20320,-0.93359,0.07056,-0.26245,10,23,177,75
20340,-0.90381,-0.17529,0.07593,10,23,177,75
20360,-0.92407,0.10083,0.18286,10,23,177,75
20380,-0.94214,-0.20386,0.22217,10,23,177,75
20400,-0.93897,-0.14673,0.14477,10,23,177,75
20420,-0.92944,0.07227,0.21387,10,23,177,75
20440,-0.93359,0.1652799999999999,0.20923,10,23,177,75
20460,-0.9458,0.04712,-0.16773,10,23,177,75
20480,-0.93506,-0.18433,0.28052,10,23,177,75
20500,-0.94605,-0.1919,0.1958,10,23,177,75
20520,-0.97949,-0.12061,-0.26758,10,23,177,75
20540,-0.85278,-0.15649,-0.47754,10,23,177,75
20560,-0.93555,0.17212,0.20752,10,23,177,75
20580,-0.96558,-0.07056,-0.13135,10,23,177,75
20600,-0.96167,-0.19605,0.1731,10,23,177,75
20620,-0.94238,0.06128,-0.18213,10,23,177,75
20640,-0.94458,-0.00342,-0.09302,10,23,177,75
20660,-0.88818,0.29907,0.21582,10,23,177,75
20680,-0.92505,-0.23291,0.21777,10,23,177,75
20700,-0.92676,-0.16992,-0.17627,10,23,177,75
20720,-0.91821,-0.08716,-0.25561,10,23,177,75
20740,-0.93066,-0.01221,-0.26245,10,23,177,75
20760,-0.95288,-0.19092,0.15332,10,23,177,75
20780,-1.3711,-0.14477,-0.20459,10,23,177,75
20800,-0.94873,0.14941,-0.021,10,23,177,75
20820,-0.9895,0.00146,0.01172,10,23,177,75
20840,-0.94775,0.09741,0.19409,10,23,177,75
20860,-0.91773,0.27905,0.1919,10,23,177,75
20880,-1.0066,-0.1416,0.20825,10,23,177,75
20900,-0.91968,-0.07178,-0.31152,10,23,177,75
20920,-0.92505,-0.20239,0.1897,10,23,177,75
20940,-1.0188,-0.02515,-0.2251,10,23,177,75
20960,-0.93897,0.24414,0.19751,10,23,177,75
20980,-0.8676799999999999,-0.14014,0.48071,10,23,177,75
21000,-0.94458,-0.20044,0.20288,10,23,177,75
21020,-0.90332,0.11939,0.39453,10,23,177,75
21040,-0.8798799999999999,0.33276,0.22461,10,23,177,75
21060,-0.88892,-0.16699,-0.33154,10,23,177,75
21080,-0.93457,-0.01587,0.29663,10,23,177,75
21100,-0.94995,-0.23926,0.23438,10,23,177,75
21120,-0.9006299999999999,0.12109,0.35913,10,23,177,75
21140,-0.93457,-0.18848,0.17725,10,23,177,75
21160,-0.86475,-0.1687,-0.47852,10,23,177,75
21180,-0.8789100000000001,-0.12598,-0.39502,10,23,177,75
21200,-0.96924,0.09448,0.14087,10,23,177,75
21220,-0.95972,-0.05029,-0.08667,10,23,177,75
21240,-0.94092,0.0861799999999999,0.2373,10,23,177,75
21260,-0.8886700000000001,0.2981,0.21997,10,23,177,75
21280,-0.8977,0.33276,0.23438,10,23,177,75
21300,-0.92432,-0.24536,0.14722,10,23,177,75
21320,-0.90503,-0.14868,0.24878,10,23,177,75
21340,-0.95727,-0.20239,0.14331,10,23,177,75
21360,-0.8449700000000001,0.31714,0.36597,10,23,177,75
21380,-0.91113,-0.15234,0.36401,10,23,177,75
21400,-0.99145,-0.03735,-0.02197,10,23,177,75
21420,-0.94653,0.08447,-0.2041,10,23,177,75
21440,-0.6416,-0.14673,-0.71851,10,23,177,75
21460,-0.93115,-0.17505,0.16211,10,23,177,75
21480,-0.8803700000000001,0.32959,0.22241,10,23,177,75
21500,-0.95435,-0.21045,0.19531,10,23,177,75
21520,-0.92871,-0.16065,0.10547,10,23,177,75
21540,-0.94092,-0.08496,-0.00244,10,23,177,75
21560,-0.96484,-0.073,-0.14331,10,23,177,75
21580,-0.80347,-0.11914,-0.25928,10,23,177,75
21600,-0.9541,-0.15845,0.1521,10,23,177,75
21620,-0.9646,-0.13623,0.14331,10,23,177,75
21640,-0.91675,-0.11182,-0.31738,10,23,177,75
21660,-0.87915,0.11816,0.40576,10,23,177,75
21680,-0.95727,-0.15479,-0.37891,10,23,177,75
21700,-0.9419,-0.18921,0.18408,10,23,177,75
21720,-0.8466799999999999,-0.08472,-0.44043,10,23,177,75
21740,-0.89404,0.26148,0.27759,10,23,177,75
21760,-0.93164,-0.20435,0.15991,10,23,177,75
21780,-0.94287,-0.21509,0.1787099999999999,10,23,177,75
21800,-0.93603,-0.05786,-0.2207,10,23,177,75
21820,-0.96484,0.12109,0.1272,10,23,177,75
21840,-0.93726,-0.20459,0.1394,10,23,177,75
21860,-0.95801,0.12646,0.12085,10,23,177,75
21880,-0.96851,0.11597,0.15527,10,23,177,75
21900,-0.9541,-0.21387,0.0481,10,23,177,75
21920,-0.92944,-0.1272,-0.20654,10,23,177,75
21940,-0.95801,0.08667,-0.29297,10,23,177,75
21960,-0.9668,-0.15356,0.13379,10,23,177,75
21980,-0.96484,0.12109,0.1272,10,23,177,75
22000,-0.96094,-0.15894,0.09082,10,23,177,75
22020,-0.90308,0.02856,-0.25146,10,23,177,75
22040,-0.86035,-0.09082,-0.45068,10,23,177,75
22060,-0.95361,-0.13477,0.19775,10,23,177,75
22080,-0.94263,-0.20215,0.22827,10,23,177,75
22100,-0.94214,-0.19678,0.17676,10,23,177,75
22120,-0.92944,0.27393,0.32398,10,23,177,75
22140,-0.88184,0.11182,0.40234,10,23,177,75
22160,-0.96484,-0.073,-0.14331,10,23,177,75
22180,-0.9353,-0.19629,0.21875,10,23,177,75
22200,-0.98096,-0.07178,-0.03882,10,23,177,75
22220,-0.93262,-0.19385,0.18799,10,23,177,75
22240,-0.94092,-0.23047,0.20532,10,23,177,75
22260,-0.9043,0.07105,0.39209,10,23,177,75
22280,-0.94751,0.10303,0.19214,10,23,177,75
22300,-0.95483,-0.15063,0.11328,10,23,177,75
22320,-0.9397,-0.2063,0.19141,10,23,177,75
22340,-0.91113,0.12231,0.30005,10,23,177,75
22360,-0.90088,0.01074,-0.32886,10,23,177,75
22380,-0.90503,0.27637,0.25293,10,23,177,75
22400,-0.96216,-0.17163,0.03394,10,23,177,75
22420,-0.8916,0.2644,0.2417,10,23,177,75
22440,-0.93262,-0.2229,0.19946,10,23,177,75
22460,-0.9436,0.17261,0.18628,10,23,177,75
22480,-0.93921,-0.0603,-0.21704,10,23,177,75
22500,-0.91773,0.28345,0.18213,10,23,177,75
22520,-0.93433,0.16699,0.18896,10,23,177,75
22540,-0.92383,0.03174,-0.26538,10,23,177,75
22560,-0.92407,-0.16943,0.30884,10,23,177,75
22580,-0.94043,0.11353,0.18896,10,23,177,75
22600,-0.94312,-0.21362,0.20459,10,23,177,75
22620,-0.8794,-0.0271,-0.36377,11,26,169,94
22640,-0.8779299999999999,0.33154,0.26904,11,26,169,94
22660,-0.85962,-0.0957,-0.43774,11,26,169,94
22680,-0.94678,-0.17139,-0.03589,11,26,169,94
22700,-0.94873,-0.1474599999999999,-0.16846,11,26,169,94
22720,-0.90283,-0.10815,-0.36352,11,26,169,94
22740,-0.95508,-0.20264,0.12109,11,26,169,94
22760,-0.93652,-0.20142,0.21777,11,26,169,94
22780,-0.92578,-0.19385,0.1748,11,26,169,94
22800,-0.96094,0.1328099999999999,-0.04175,11,26,169,94
22820,-0.95361,-0.13477,0.19775,11,26,169,94
22840,-0.95508,0.04175,-0.21289,11,26,169,94
22860,-0.93945,-0.19775,0.17749,11,26,169,94
22880,-0.92871,-0.21997,0.23023,11,26,169,94
22900,-0.96777,-0.02808,-0.26953,11,26,169,94
22920,-0.91895,-0.15332,0.01465,11,26,169,94
22940,-0.91821,-0.18481,0.27588,11,26,169,94
22960,-0.94873,-0.04688,-0.11548,11,26,169,94
22980,-0.8784200000000001,0.33496,0.21265,11,26,169,94
23000,-0.95361,-0.2146,0.1687,11,26,169,94
23020,-0.95166,-0.20874,0.18091,11,26,169,94
23040,-0.87231,0.3291,0.26294,11,26,169,94
23060,-0.93481,0.12573,-0.27295,11,26,169,94
23080,-0.83496,0.07275,0.39136,11,26,169,94
23100,-0.8877,0.33081,0.21826,11,26,169,94
23120,-0.93897,0.16333,0.22363,11,26,169,94
23140,-0.95703,-0.02539,-0.10913,11,26,169,94
23160,-0.81567,-0.06543,-0.52612,11,26,169,94
23180,-0.95727,-0.0542,-0.12646,11,26,169,94
23200,-0.90185,-0.11206,-0.33496,11,26,169,94
23220,-0.91797,0.01611,-0.29321,11,26,169,94
23240,-0.95605,-0.15112,0.22803,11,26,169,94
23260,-0.948,-0.20215,0.17505,11,26,169,94
23280,-0.93555,0.10889,0.19629,11,26,169,94
23300,-0.94507,0.10083,0.11475,11,26,169,94
23320,-0.94067,-0.22388,0.18799,11,26,169,94
23340,-0.93726,0.09985,0.23706,11,26,169,94
23360,-0.87451,0.05591,-0.17847,11,26,169,94
23380,-0.93164,0.2356,-0.12158,11,26,169,94
23400,-0.90137,-0.09595,-0.31909,11,26,169,94
23420,-0.97949,-0.09985,-0.08691,11,26,169,94
23440,-0.89941,0.12012,0.41919,11,26,169,94
23460,-0.95142,-0.1831,0.15674,11,26,169,94
23480,-0.66382,-0.02759,-0.73364,11,26,169,94
23500,-0.95801,0.08838,0.13037,11,26,169,94
23520,-0.90356,0.32178,0.29248,11,26,169,94
23540,-0.94092,0.09473,0.19873,11,26,169,94
23560,-0.94873,-0.18823,0.19507,11,26,169,94
23580,-0.95337,-0.19385,0.12842,11,26,169,94
23600,-0.95386,0.02637,0.04736,11,26,169,94
23620,-0.93359,0.15283,0.20264,11,26,169,94
23640,-0.93115,0.00879,-0.24487,11,26,169,94
23660,-0.93506,-0.20923,0.21118,11,26,169,94
23680,-0.9187,0.15015,0.16309,11,26,169,94
23700,-0.95727,-0.0542,-0.12646,11,26,169,94
23720,-0.92041,-0.15185,0.14844,11,26,169,94
23740,-0.75317,0.29517,0.375,11,26,169,94
23760,-0.9751,0.00269,0.01953,11,26,169,94
23780,-0.94946,0.10352,0.198,11,26,169,94
23800,-0.94824,-0.19312,0.17651,11,26,169,94
23820,-0.96802,-0.14014,-0.14795,11,26,169,94
23840,-0.89502,0.1328099999999999,0.13525,11,26,169,94
23860,-0.95898,-0.14624,0.12036,11,26,169,94
23880,-0.96802,-0.20727,-0.21289,11,26,169,94
23900,-0.88574,0.32617,0.24609,11,26,169,94
23920,-0.95801,-0.1355,0.11939,11,26,169,94
23940,-0.89087,0.29297,0.21973,11,26,169,94
23960,-1.0015,0.00342,0.00317,11,26,169,94
23980,-0.96313,-0.17236,0.03418,11,26,169,94
24000,-0.97925,-0.15991,0.25513,11,26,169,94
24020,-0.9602,-0.15674,0.11328,11,26,169,94
24040,-0.92944,0.03882,-0.2456,11,26,169,94
24060,-0.9541,-0.15845,0.1521,11,26,169,94
24080,-0.9043,0.22705,0.2998,11,26,169,94
24100,-0.90478,0.27295,0.23633,11,26,169,94
24120,-0.93286,-0.21655,0.16699,11,26,169,94
24140,-0.79297,-0.19507,-0.53809,11,26,169,94
24160,-0.95557,-0.146,0.12256,11,26,169,94
24180,-0.8691399999999999,-0.09815,-0.4519,11,26,169,94
24200,-0.90601,0.12671,0.3728,11,26,169,94
24220,-0.93799,-0.19312,0.22437,11,26,169,94
24240,-0.89331,0.29102,0.23438,11,26,169,94
24260,-0.94531,-0.22485,0.08984,11,26,169,94
24280,-0.9006299999999999,0.28613,0.25488,11,26,169,94
24300,-0.8444799999999999,-0.1560099999999999,0.47412,11,26,169,94
24320,-0.69067,-0.1604,-0.67114,11,26,169,94
24340,-0.97119,-0.104,-0.19263,11,26,169,94
24360,-0.95727,-0.11182,0.12769,11,26,169,94
24380,-0.93945,-0.19775,0.17749,11,26,169,94
24400,-0.90723,0.15918,0.39893,11,26,169,94
24420,-0.92895,0.02466,-0.25977,11,26,169,94
24440,-0.93774,-0.19824,0.1704099999999999,11,26,169,94
24460,-0.7954100000000001,0.35767,0.25781,11,26,169,94
24480,-0.94043,-0.1333,-0.13818,11,26,169,94
24500,-0.86475,-0.1687,-0.47852,11,26,169,94
24520,-0.9602,-0.06787,-0.12061,11,26,169,94
24540,-0.94116,-0.01074,-0.20654,11,26,169,94
24560,-0.94141,-0.20386,0.18286,12,64,172,75
24580,-0.88818,0.06494,-0.30591,12,64,172,75
24600,-0.88965,0.32471,0.24976,12,64,172,75
24620,-0.90234,0.29077,0.25146,12,64,172,75
24640,-0.85254,0.36255,0.31274,12,64,172,75
24660,-0.93823,-0.2334,0.15308,12,64,172,75
24680,-0.89941,-0.10498,-0.35523,12,64,172,75
24700,-0.875,-0.01978,-0.4104,12,64,172,75
24720,-0.89795,0.0737299999999999,0.36694,12,64,172,75
24740,-0.88159,0.32422,0.28198,12,64,172,75
24760,-0.92212,-0.02466,-0.27026,12,64,172,75
24780,-0.72705,-0.01856,-0.6391600000000001,12,64,172,75
24800,-0.90747,-0.10107,-0.32373,12,64,172,75
24820,-0.8430200000000001,0.40015,0.31152,12,64,172,75
24840,-0.91577,0.08887,0.16065,12,64,172,75
24860,-0.67602,-0.10254,-0.68481,12,64,172,75
24880,-0.93408,-0.22192,0.07397,12,64,172,75
24900,-0.94873,-0.03686,-0.16846,12,64,172,75
24920,-0.94946,-0.20093,0.1643099999999999,12,64,172,75
24940,-0.90576,0.00586,0.35425,12,64,172,75
24960,-0.89087,0.15015,0.41333,12,64,172,75
24980,-0.96289,-0.13989,0.11108,12,64,172,75
25000,-0.92651,-0.04028,-0.30664,12,64,172,75
25020,-0.8571799999999999,-0.09668,-0.44482,12,64,172,75
25040,-0.92065,-0.20288,0.21631,12,64,172,75
25060,-0.91211,0.25903,0.23608,12,64,172,75
25080,-0.92236,0.05395,0.1704099999999999,12,64,172,75
25100,-0.9397,-0.22168,0.1814,12,64,172,75
25120,-0.94653,-0.16846,0.15723,12,64,172,75
25140,-0.94409,-0.19067,0.18628,12,64,172,75
25160,-0.91602,0.22827,0.18994,12,64,172,75
25180,-0.95337,-0.18628,0.21143,12,64,172,75
25200,-0.89038,0.29077,0.2478,12,64,172,75
25220,-0.9021,0.26855,0.23218,12,64,172,75
25240,-0.94653,0.06738,0.19263,12,64,172,75
25260,-0.93408,-0.2085,0.21631,12,64,172,75
25280,-0.96899,-0.1704099999999999,0.04028,12,64,172,75
25300,-0.88135,0.14551,0.41602,12,64,172,75
25320,-0.8906299999999999,0.2981,0.23218,12,64,172,75
25340,-0.92798,-0.21729,0.10742,12,64,172,75
25360,-0.87671,0.32178,0.22485,12,64,172,75
25380,-0.94336,-0.1416,-0.16235,12,64,172,75
25400,-0.93848,0.04956,-0.34424,12,64,172,75
25420,-0.90283,0.18555,0.33765,12,64,172,75
25440,-0.94238,-0.17505,0.18652,12,64,172,75
25460,-0.8715799999999999,0.32324,0.21655,12,64,172,75
25480,-0.97168,-0.20337,0.12061,12,64,172,75
25500,-0.95313,0.09448,0.21094,12,64,172,75
25520,-0.93481,-0.13696,0.06787,12,64,172,75
25540,-0.8630399999999999,0.32886,0.22827,12,64,172,75
25560,-0.93897,0.17017,0.19849,12,64,172,75
25580,-0.96216,-0.0669,-0.14526,12,64,172,75
25600,-0.8781700000000001,0.34131,0.27319,12,64,172,75
25620,-0.93359,-0.21753,0.19434,12,64,172,75
25640,-0.97217,0.01465,0.08301,12,64,172,75
25660,-0.8444799999999999,0.05371,0.51025,12,64,172,75
25680,-0.94653,-0.00122,-0.21143,12,64,172,75
25700,-0.95923,-0.21533,0.15527,12,64,172,75
25720,-0.7290000000000001,-0.04468,-0.66528,12,64,172,75
25740,-0.96094,0.0820299999999999,0.12451,12,64,172,75
25760,-0.88208,0.34888,0.23291,12,64,172,75
25780,-0.9397,-0.01685,-0.18286,12,64,172,75
25800,-0.9458,-0.17505,0.14893,12,64,172,75
25820,-0.90967,0.29126,0.37329,12,64,172,75
25840,-0.8378899999999999,-0.06811,-0.18921,12,64,172,75
25860,-0.94702,-0.24268,0.2085,12,64,172,75
25880,-0.94751,0.08716,0.18921,12,64,172,75
25900,-0.94238,0.10962,0.13257,12,64,172,75
25920,-0.87598,0.31079,0.23486,12,64,172,75
25940,-0.91919,0.22681,0.25146,12,64,172,75
25960,-0.9751,-0.03394,0.07593,12,64,172,75
25980,-0.93433,-0.2168,0.21948,12,64,172,75
26000,-0.94434,0.1652799999999999,0.20288,12,64,172,75
26020,-0.9419,0.16235,0.22241,12,64,172,75
26040,-0.94434,-0.19605,0.16455,12,64,172,75
26060,-0.9375,-0.20117,0.18115,12,64,172,75
26080,-0.94922,-0.16943,0.15747,12,64,172,75
26100,-0.98193,-0.01025,-0.06372,12,64,172,75
26120,-0.9331,-0.22021,0.20947,12,64,172,75
26140,-0.86377,-0.06616,-0.37305,12,64,172,75
26160,-0.96045,-0.1499,0.09497,12,64,172,75
26180,-0.92114,-0.18433,0.32007,12,64,172,75
26200,-0.97534,0.02979,-0.01733,12,64,172,75
26220,-0.85596,0.33887,0.22827,12,64,172,75
26240,-0.85645,-0.052,-0.44458,12,64,172,75
26260,-0.94824,-0.21191,0.18091,12,64,172,75
26280,-0.89551,0.03149,0.38135,12,64,172,75
26300,-0.89355,0.31104,0.25195,12,64,172,75
26320,-0.875,-0.01978,-0.4104,12,64,172,75
26340,-0.9375,-0.20874,0.17847,12,64,172,75
26360,-0.95776,-0.21094,0.16797,12,64,172,75
26380,-0.93018,-0.18213,0.20752,12,64,172,75
26400,-0.93677,0.09204,-0.18066,12,64,172,75
26420,-0.94995,-0.20435,0.0529799999999999,12,64,172,75
26440,-0.94238,-0.20679,0.14429,12,64,172,75
26460,-0.9436,-0.09815,-0.17432,12,64,172,75
26480,-0.95215,-0.15332,0.16113,12,64,172,75
26500,-0.8859899999999999,0.22339,0.34058,12,64,172,75
26520,-0.91968,-0.18921,0.28101,12,64,172,75
26540,-0.95044,-0.15259,0.04956,12,64,172,75
26560,-0.95142,0.11963,0.1355,12,64,172,75
26580,-0.8999,0.11499,0.42383,12,64,172,75
26600,-0.92798,-0.2312,0.20361,12,64,172,75
26620,-0.94214,-0.23486,0.12891,12,64,172,75
26640,-0.9668,-0.01196,-0.21045,12,64,172,75
26660,-0.89355,0.31104,0.25195,12,64,172,75
26680,-0.93848,0.10864,0.14063,12,64,172,75
26700,-0.94898,-0.20508,0.18848,12,64,172,75
26720,-0.94873,0.00195,-0.21411,12,64,172,75
26740,-0.94092,0.0861799999999999,0.2373,12,64,172,75
26760,-0.94287,-0.20166,0.06177,12,64,172,75
26780,-0.86475,0.08423,-0.41284,12,64,172,75
26800,-0.802,-0.1330599999999999,-0.50513,12,64,172,75
26820,-0.95874,0.08252,-0.03613,12,64,172,75
26840,-0.9563,-0.12158,0.11084,12,64,172,75
26860,-0.97461,-0.18457,0.11597,12,64,172,75
26880,-0.9707,-0.08667,-0.10864,12,64,172,75
26900,-0.95288,-0.00879,-0.18408,12,64,172,75
26920,-0.92895,0.03198,-0.26758,12,64,172,75
26940,-0.8378899999999999,-0.06811,-0.18921,12,64,172,75
26960,-0.95215,-0.1814,0.25439,13,43,183,104
26980,-0.92114,0.2124,0.23633,13,43,183,104
27000,-0.94312,-0.19971,0.20435,13,43,183,104
27020,-0.93677,-0.09546,0.29907,13,43,183,104
27040,-0.95142,-0.08496,-0.1557599999999999,13,43,183,104
27060,-0.92212,-0.18774,0.19678,13,43,183,104
27080,-0.98023,-0.17529,0.09448,13,43,183,104
27100,-0.94238,0.09912,-0.14136,13,43,183,104
27120,-0.90381,0.29346,0.23706,13,43,183,104
27140,-0.8234899999999999,-0.19385,-0.5061,13,43,183,104
27160,-0.91406,0.14063,0.33301,13,43,183,104
27180,-0.8322700000000001,0.35474,0.33179,13,43,183,104
27200,-0.91382,-0.19434,0.31104,13,43,183,104
27220,-0.84888,-0.06982,-0.42432,13,43,183,104
27240,-0.9419,0.06396,-0.0778799999999999,13,43,183,104
27260,-0.89185,0.32764,0.23071,13,43,183,104
27280,-0.98682,-0.19653,0.0864299999999999,13,43,183,104
27300,-0.95703,-0.20215,0.16626,13,43,183,104
27320,-0.8593799999999999,-0.15185,-0.46851,13,43,183,104
27340,-0.8920899999999999,-0.10425,-0.1748,13,43,183,104
27360,-1.0686,-0.20288,0.14355,13,43,183,104
27380,-0.88525,0.33545,0.24683,13,43,183,104
27400,-0.93164,-0.21411,0.20117,13,43,183,104
27420,-0.91724,0.25317,0.24976,13,43,183,104
27440,-0.94898,-0.22168,0.12598,13,43,183,104
27460,-0.94531,-0.1438,0.13843,13,43,183,104
27480,-0.88745,0.3229999999999999,0.25293,13,43,183,104
27500,-0.91357,0.22388,0.28345,13,43,183,104
27520,-0.86475,0.34766,0.25488,13,43,183,104
27540,-0.95996,-0.19653,0.17651,13,43,183,104
27560,-0.93164,0.21973,-0.21826,13,43,183,104
27580,-0.8989299999999999,0.06299,0.37061,13,43,183,104
27600,-0.95386,-0.1425799999999999,0.15405,13,43,183,104
27620,-0.90869,-0.09106,0.04858,13,43,183,104
27640,-0.92236,-0.1626,0.23975,13,43,183,104
27660,-0.66309,-0.1655299999999999,-0.69922,13,43,183,104
27680,-0.95898,-0.14893,-0.09082,13,43,183,104
27700,-0.97998,-0.20752,0.12646,13,43,183,104
27720,-0.93628,0.15185,0.20508,13,43,183,104
27740,-0.94531,0.04419,0.31738,13,43,183,104
27760,-0.7963899999999999,0.02661,0.45239,13,43,183,104
27780,-0.9602,0.12207,0.15088,13,43,183,104
27800,-0.90894,-0.1333,-0.27539,13,43,183,104
27820,-0.93872,0.09033,0.1330599999999999,13,43,183,104
27840,-0.9563,-0.10962,-0.14111,13,43,183,104
27860,-0.8652299999999999,0.26416,0.30298,13,43,183,104
27880,-0.88721,0.32788,0.22876,13,43,183,104
27900,-0.94653,0.13794,0.20166,13,43,183,104
27920,-0.93262,0.10132,0.21313,13,43,183,104
27940,-0.93481,-0.23901,0.18481,13,43,183,104
27960,-0.94019,-0.0852,0.15796,13,43,183,104
27980,-0.95898,-0.17065,0.1333,13,43,183,104
28000,-0.94458,-0.18066,0.17773,13,43,183,104
28020,-0.92163,-0.03589,-0.31445,13,43,183,104
28040,-0.93872,0.1604,0.19043,13,43,183,104
28060,-0.95752,-0.04688,-0.15234,13,43,183,104
28080,-0.91846,-0.22241,0.19385,13,43,183,104
28100,-0.96191,0.01099,0.07617,13,43,183,104
28120,-0.95825,-0.13355,0.17407,13,43,183,104
28140,-0.9331,-0.02075,-0.28394,13,43,183,104
28160,-0.91675,0.11035,0.3396,13,43,183,104
28180,-0.93115,-0.19238,0.22168,13,43,183,104
28200,-0.95483,0.08374,0.18335,13,43,183,104
28220,-0.94971,0.08569,0.1738299999999999,13,43,183,104
28240,-0.8945299999999999,0.32129,0.22021,13,43,183,104
28260,-0.92383,-0.11231,-0.22144,13,43,183,104
28280,-0.94629,-0.23291,0.12134,13,43,183,104
28300,-0.96216,-0.14307,0.11231,13,43,183,104
28320,-0.93237,-0.19995,0.28101,13,43,183,104
28340,-0.8579100000000001,-0.10767,-0.43408,13,43,183,104
28360,-0.95727,0.00732,-0.03003,13,43,183,104
28380,-0.91821,-0.11865,-0.28027,13,43,183,104
28400,-0.93457,-0.01221,-0.21802,13,43,183,104
28420,-0.9043,-0.09936,-0.32544,13,43,183,104
28440,-0.90478,0.10327,0.33301,13,43,183,104
28460,-0.93945,-0.22827,0.20996,13,43,183,104
28480,-0.86621,0.25586,0.25635,13,43,183,104
28500,-0.95679,-0.2251,0.1626,13,43,183,104
28520,-0.94385,-0.19092,0.16748,13,43,183,104
28540,-0.93188,0.1738299999999999,0.1665,13,43,183,104
28560,-0.93652,-0.12646,-0.18018,13,43,183,104
28580,-0.95093,-0.03467,-0.20215,13,43,183,104
28600,-0.98023,-0.13843,0.08423,13,43,183,104
28620,-0.90332,-0.11914,-0.34448,13,43,183,104
28640,-0.92676,-0.21948,0.19141,13,43,183,104
28660,-0.84424,-0.08984,-0.45898,13,43,183,104
28680,-0.91528,-0.198,0.32837,13,43,183,104
28700,-0.89551,0.24268,0.26636,13,43,183,104
28720,-0.93677,-0.12817,-0.23608,13,43,183,104
28740,-0.94043,-0.06982,-0.20483,13,43,183,104
28760,-0.95581,0.11084,0.15405,13,43,183,104
28780,-0.94165,-0.02612,-0.22168,13,43,183,104
28800,-0.96997,-0.2041,0.1582,13,43,183,104
28820,-0.92383,-0.19971,0.18091,13,43,183,104
28840,-0.94824,-0.17554,0.17578,13,43,183,104
28860,-0.7641600000000001,0.37476,0.26392,13,43,183,104
28880,-0.93433,0.16138,0.20776,13,43,183,104
28900,-0.94458,-0.0918,-0.25171,13,43,183,104
28920,-0.9519,-0.16382,0.12744,13,43,183,104
28940,-0.78174,-0.02173,-0.5856899999999999,13,43,183,104
28960,-0.9331,-0.01953,-0.23682,13,43,183,104
28980,-0.96948,-0.07007,-0.10986,13,43,183,104
29000,-0.95215,-0.23926,0.13355,13,43,183,104
29020,-0.9541,-0.1423299999999999,-0.18774,13,43,183,104
29040,-0.88794,0.11231,0.42163,13,43,183,104
29060,-0.93164,0.18921,0.19287,13,43,183,104
29080,-0.93994,-0.0166,-0.2019,13,43,183,104
29100,-0.90185,-0.11694,-0.40186,13,43,183,104
29120,-0.90015,0.2854,0.22339,13,43,183,104
29140,-0.93603,-0.15405,0.21021,13,43,183,104
29160,-0.8764700000000001,0.34473,0.25855,13,43,183,104
29180,-0.96118,-0.16846,0.03076,13,43,183,104
29200,-0.9563,0.10083,0.07202,13,43,183,104
29220,-0.96143,-0.18579,0.15503,13,43,183,104
29240,-0.92334,-0.0708,-0.23047,13,43,183,104
29260,-0.8845200000000001,0.32349,0.26148,13,43,183,104
29280,-0.95605,-0.21826,0.07349,13,43,183,104
29300,-0.91382,-0.18384,0.26538,13,43,183,104
29320,-0.94336,-0.05225,-0.22339,13,43,183,104
29340,-0.94678,-0.21265,0.19849,13,43,183,104
29360,-0.94409,0.10449,0.18677,13,43,183,104
29380,-0.91235,-0.0769,-0.29883,13,43,183,104
29400,-0.92139,-0.20459,0.19434,14,20,175,50
29420,-0.92285,-0.20361,0.20166,14,20,175,50
29440,-0.93677,-0.12817,-0.23608,14,20,175,50
29460,-0.90503,-0.1145,-0.31738,14,20,175,50
29480,-0.8886700000000001,0.31934,0.23389,14,20,175,50
29500,-0.92822,0.16846,0.34766,14,20,175,50
29520,-0.9436,0.08887,0.23047,14,20,175,50
29540,-0.8781700000000001,0.32617,0.24341,14,20,175,50
29560,-0.96216,-0.0669,-0.14526,14,20,175,50
29580,-0.94653,-0.0271,-0.21338,14,20,175,50
29600,-0.87305,0.33154,0.2041,14,20,175,50
29620,-0.76489,-0.00513,-0.5769,14,20,175,50
29640,-0.76953,-0.08032,-0.6018100000000001,14,20,175,50
29660,-0.8479,0.39502,0.17285,14,20,175,50
29680,-0.94898,-0.16113,0.05689,14,20,175,50
29700,-0.94995,0.0896,0.17944,14,20,175,50
29720,-0.93066,0.1792,0.18677,14,20,175,50
29740,-0.93481,-0.19507,0.2666,14,20,175,50
29760,-0.88403,-0.00903,0.37231,14,20,175,50
29780,-0.8859899999999999,-0.05225,-0.37109,14,20,175,50
29800,-0.89038,0.28369,-0.1853,14,20,175,50
29820,-0.88574,-0.16162,0.21826,14,20,175,50
29840,-0.9419,-0.18921,0.18408,14,20,175,50
29860,-0.9419,-0.20801,0.20947,14,20,175,50
29880,-0.8869600000000001,0.28638,0.23364,14,20,175,50
29900,-0.94653,0.1958,0.33154,14,20,175,50
29920,-0.93262,0.20044,-0.12012,14,20,175,50
29940,-0.94531,-0.1438,0.13843,14,20,175,50
29960,-0.93726,0.10864,0.22607,14,20,175,50
29980,-0.8798799999999999,0.1189,0.41577,14,20,175,50
30000,-0.81055,-0.00537,-0.53027,14,20,175,50
30020,-0.90552,-0.04956,-0.30273,14,20,175,50
30040,-1.0066,-0.1416,0.20825,14,20,175,50
30060,-0.94922,-0.12695,-0.18091,14,20,175,50
30080,-0.95923,-0.14966,0.16773,14,20,175,50
30100,-0.89746,0.00488,-0.36694,14,20,175,50
30120,-0.95825,-0.11914,-0.20288,14,20,175,50
30140,-0.9541,-0.1936,0.08496,14,20,175,50
30160,-0.97559,-0.21021,0.10498,14,20,175,50
30180,-0.95972,-0.18848,0.15039,14,20,175,50
30200,-0.96118,-0.19922,0.03686,14,20,175,50
30220,-0.9331,-0.22681,0.21655,14,20,175,50
30240,-0.97315,-0.16895,0.1687,14,20,175,50
30260,-0.92188,-0.14575,-0.24487,14,20,175,50
30280,-0.97632,0.00049,-0.07886,14,20,175,50
30300,-0.8794,0.33862,0.26416,14,20,175,50
30320,-0.94678,-0.2146,0.21802,14,20,175,50
30340,-0.88159,0.32422,0.28198,14,20,175,50
30360,-0.9375,-0.20117,0.18115,14,20,175,50
30380,-0.90015,-0.24194,0.27564,14,20,175,50
30400,-0.89941,0.30762,0.23608,14,20,175,50
30420,-0.91699,-0.18677,0.22559,14,20,175,50
30440,-0.94849,-0.02954,-0.11792,14,20,175,50
30460,-0.94116,0.01172,-0.18872,14,20,175,50
30480,-0.59692,-0.11939,-0.76685,14,20,175,50
30500,-0.92822,-0.04858,-0.10498,14,20,175,50
30520,-0.88159,0.31641,0.21826,14,20,175,50
30540,-0.9419,-0.17188,0.20557,14,20,175,50
30560,-0.92334,-0.15161,-0.26636,14,20,175,50
30580,-0.8798799999999999,0.38403,0.18921,14,20,175,50
30600,-0.85449,-0.09546,-0.45215,14,20,175,50
30620,-0.95044,0.10474,0.19971,14,20,175,50
30640,-0.89185,0.30811,0.21631,14,20,175,50
30660,-0.9331,0.09619,-0.20142,14,20,175,50
30680,-0.96094,-0.19043,0.1425799999999999,14,20,175,50
30700,-0.95142,0.16235,0.2373,14,20,175,50
30720,-0.94824,-0.00732,-0.20313,14,20,175,50
30740,-0.93774,-0.03369,-0.2334,14,20,175,50
30760,-0.86865,0.34204,0.23169,14,20,175,50
30780,-0.94873,-0.16455,-0.12329,14,20,175,50
30800,-0.95264,0.11768,0.15332,14,20,175,50
30820,-0.98535,0.10376,0.21997,14,20,175,50
30840,-0.85913,-0.09155,-0.42773,14,20,175,50
30860,-0.88281,0.2832,0.3010199999999999,14,20,175,50
30880,-0.8845200000000001,0.31567,0.23438,14,20,175,50
30900,-0.90478,-0.12817,-0.31714,14,20,175,50
30920,-0.91895,0.08789,-0.24927,14,20,175,50
30940,-0.90723,0.25781,0.18164,14,20,175,50
30960,-0.8867200000000001,-0.04981,-0.38452,14,20,175,50
30980,-0.93677,0.09204,-0.18066,14,20,175,50
31000,-0.93921,0.1604,0.21704,14,20,175,50
31020,-0.93555,-0.22998,0.21387,14,20,175,50
31040,-0.94605,-0.19678,0.21582,14,20,175,50
31060,-0.94434,-0.06787,-0.22827,14,20,175,50
31080,-0.95313,0.08935,0.18677,14,20,175,50
31100,-0.93457,0.05981,0.15112,14,20,175,50
31120,-0.95068,-0.16724,0.16113,14,20,175,50
31140,-0.96338,0.12549,0.14917,14,20,175,50
31160,-0.97266,-0.146,0.13794,14,20,175,50
31180,-0.95679,-0.13525,0.11963,14,20,175,50
31200,-0.95727,-0.11182,0.12769,14,20,175,50
31220,-0.95483,0.09766,0.16065,14,20,175,50
31240,-0.9624,0.00903,0.11841,14,20,175,50
31260,-0.94702,-0.20044,0.20557,14,20,175,50
31280,-0.95532,-0.02393,-0.17578,14,20,175,50
31300,-0.87476,0.2898,0.23608,14,20,175,50
31320,-0.91065,-0.18799,0.33057,14,20,175,50
31340,-0.86865,0.39307,0.17407,14,20,175,50
31360,-0.94458,0.17627,0.21362,14,20,175,50
31380,-0.93603,0.16382,0.18262,14,20,175,50
31400,-0.98975,-0.05835,0.03442,14,20,175,50
31420,-0.94995,-0.16577,0.14795,14,20,175,50
31440,-0.93799,-0.19678,0.20044,14,20,175,50
31460,-0.90601,-0.16309,-0.31543,14,20,175,50
31480,-0.8986799999999999,0.31567,0.16797,14,20,175,50
31500,-0.89233,0.2146,-0.22021,14,20,175,50
31520,-0.93042,-0.10474,-0.26123,14,20,175,50
31540,-0.93799,-0.20532,0.18506,15,40,192,65
31560,-0.89722,0.26758,0.21094,15,40,192,65
31580,-0.8789100000000001,0.39868,0.19336,15,40,192,65
31600,-0.94238,-0.17505,0.18652,15,40,192,65
31620,-0.95093,-0.02686,-0.16943,15,40,192,65
31640,-0.93774,-0.0864299999999999,-0.21948,15,40,192,65
31660,-0.95923,0.03857,0.3667,15,40,192,65
31680,-0.95825,-0.0227,-0.21973,15,40,192,65
31700,-0.86426,-0.0874,-0.43457,15,40,192,65
31720,-0.93457,0.16821,0.19898,15,40,192,65
31740,-0.8986799999999999,0.33423,0.24634,15,40,192,65
31760,-0.92773,-0.16138,-0.23145,15,40,192,65
31780,-0.94727,-0.14111,0.10107,15,40,192,65
31800,-0.98047,-0.00806,0.12207,15,40,192,65
31820,-0.85425,-0.14648,-0.43945,15,40,192,65
31840,-0.94751,0.08716,0.18457,15,40,192,65
31860,-0.96582,0.09619,0.14209,15,40,192,65
31880,-0.93262,-0.19385,0.18799,15,40,192,65
31900,-0.95679,-0.20727,0.07178,15,40,192,65
31920,-0.95361,-0.12354,0.27954,15,40,192,65
31940,-0.73755,-0.03052,-0.62353,15,40,192,65
31960,-0.97339,-0.23145,0.09619,15,40,192,65
31980,-0.9043,0.07105,0.39209,15,40,192,65
32000,-0.89355,0.30469,0.24609,15,40,192,65
32020,-0.88403,0.31348,0.24292,15,40,192,65
32040,-0.8986799999999999,0.33423,0.24634,15,40,192,65
32060,-0.94458,0.11572,0.13208,15,40,192,65
32080,-0.8789100000000001,0.22388,-0.24658,15,40,192,65
32100,-0.8850100000000001,0.32129,0.23852,15,40,192,65
32120,-0.93188,-0.2146,0.20215,15,40,192,65
32140,-0.96582,-0.20654,0.14551,15,40,192,65
32160,-0.8649899999999999,-0.10034,-0.427,15,40,192,65
32180,-0.87329,0.31348,0.271,15,40,192,65
32200,-0.94824,0.09619,0.15503,15,40,192,65
32220,-0.91089,-0.10303,-0.31372,15,40,192,65
32240,-0.93921,0.15259,0.20605,15,40,192,65
32260,-0.90991,0.30689,0.23462,15,40,192,65
32280,-0.9043,0.0571299999999999,0.33252,15,40,192,65
32300,-0.76294,-0.15991,-0.6091300000000001,15,40,192,65
32320,-0.8493700000000001,0.30786,0.21094,15,40,192,65
32340,-0.9353,0.14722,0.39014,15,40,192,65
32360,-0.94238,0.02905,-0.15723,15,40,192,65
32380,-0.89746,-0.20727,0.21094,15,40,192,65
32400,-0.96924,0.07202,0.28345,15,40,192,65
32420,-0.94971,-0.18408,0.24341,15,40,192,65
32440,-0.92895,0.14111,0.2085,15,40,192,65
32460,-0.90625,-0.10669,-0.29053,15,40,192,65
32480,-0.84546,-0.11499,-0.47705,15,40,192,65
32500,-0.948,-0.1958,0.20801,15,40,192,65
32520,-0.96802,0.09473,0.21118,15,40,192,65
32540,-0.92139,-0.20532,0.24634,15,40,192,65
32560,-0.94824,-0.22656,0.2002,15,40,192,65
32580,-0.88013,0.3667,0.17578,15,40,192,65
32600,-0.93164,-0.22315,0.21167,15,40,192,65
32620,-0.85913,0.11597,0.4231,15,40,192,65
32640,-0.94751,0.00098,-0.18921,15,40,192,65
32660,-0.8811,0.32886,0.24756,15,40,192,65
32680,-0.96582,0.30884,0.27319,15,40,192,65
32700,-0.95288,-0.21631,0.08472,15,40,192,65
32720,-0.94336,-0.19898,0.21313,15,40,192,65
32740,-0.95093,0.11987,0.13257,15,40,192,65
32760,-0.92847,-0.07007,-0.24268,15,40,192,65
32780,-0.94605,0.12012,0.15039,15,40,192,65
32800,-0.9541,-0.20435,0.21826,15,40,192,65
32820,-0.93603,0.16382,0.18262,15,40,192,65
32840,-0.8281299999999999,-0.0581,-0.49316,15,40,192,65
32860,-0.9602,-0.14868,0.11768,15,40,192,65
32880,-0.92969,0.17114,0.23926,15,40,192,65
32900,-0.93262,-0.14819,-0.25464,15,40,192,65
32920,-0.94531,0.1438,0.26392,15,40,192,65
32940,-0.93506,-0.22583,0.14722,15,40,192,65
32960,-0.8894,-0.22339,0.04541,15,40,192,65
32980,-0.91211,0.25903,0.23608,15,40,192,65
33000,-0.93872,-0.24023,0.09888,15,40,192,65
33020,-0.95972,0.11157,0.07324,15,40,192,65
33040,-0.96094,-0.12598,-0.08423,15,40,192,65
33060,-0.95337,0.11182,0.13135,15,40,192,65
33080,-0.93555,-0.22266,0.16602,15,40,192,65
33100,-0.8823200000000001,0.32275,0.23755,15,40,192,65
33120,-0.9353,0.0737299999999999,0.22339,15,40,192,65
33140,-0.84888,-0.06982,-0.42432,15,40,192,65
33160,-0.8925799999999999,0.27612,0.24243,15,40,192,65
33180,-0.93848,-0.21118,0.15698,15,40,192,65
33200,-0.92236,0.15479,0.16895,15,40,192,65
33220,-0.95288,-0.198,0.16187,15,40,192,65
33240,-0.9419,-0.22339,0.17407,15,40,192,65
33260,-0.95654,-0.15137,0.04443,15,40,192,65
33280,-0.94043,0.03735,0.37329,15,40,192,65
33300,-0.94482,-0.10205,-0.20923,15,40,192,65
33320,-0.9331,0.11304,0.1875,15,40,192,65
33340,-0.8781700000000001,-0.13818,-0.35791,15,40,192,65
33360,-0.8523,-0.08472,-0.44678,15,40,192,65
33380,-0.96167,-0.17432,-0.21045,15,40,192,65
33400,-0.94702,0.16016,0.25342,15,40,192,65
33420,-0.948,0.10034,0.23779,15,40,192,65
33440,-0.8291,-0.01856,-0.49292,15,40,192,65
33460,-0.8808600000000001,0.32837,0.25195,15,40,192,65
33480,-0.94995,-0.23584,0.07715,15,40,192,65
33500,-0.93115,0.05054,0.26636,15,40,192,65
33520,-0.8669399999999999,0.32544,0.27222,15,40,192,65
33540,-0.93677,0.01196,-0.21216,15,40,192,65
33560,-0.90308,-0.09204,-0.2898,15,40,192,65
33580,-0.93848,0.01465,-0.06641,15,40,192,65
33600,-0.8220200000000001,0.38672,0.36475,15,40,192,65
33620,-0.875,-0.03784,-0.38745,15,40,192,65
33640,-1.1108,0.21509,0.07031,16,55,157,84
33660,-0.94287,-0.12671,-0.21924,16,55,157,84
33680,-0.93237,-0.18213,0.16577,16,55,157,84
33700,-0.94995,-0.23584,0.07715,16,55,157,84
33720,-0.92944,-0.23511,0.2085,16,55,157,84
33740,-0.94458,-0.0271,-0.19409,16,55,157,84
33760,-0.94238,-0.22363,0.20727,16,55,157,84
33780,-0.84009,-0.04614,-0.4458,16,55,157,84
33800,-0.8925799999999999,0.17822,0.32959,16,55,157,84
33820,-0.9541,-0.09595,0.06616,16,55,157,84
33840,-0.8964799999999999,-0.07349,-0.13623,16,55,157,84
33860,-0.94922,-0.21826,0.20801,16,55,157,84
33880,-0.95825,0.09082,0.13135,16,55,157,84
33900,-0.95483,0.08374,0.18335,16,55,157,84
33920,-0.87866,0.34106,0.24854,16,55,157,84
33940,-0.8779299999999999,0.32324,0.28662,16,55,157,84
33960,-0.94141,-0.15625,0.22876,16,55,157,84
33980,-0.93335,0.15479,0.23462,16,55,157,84
34000,-0.94214,-0.0529799999999999,-0.19434,16,55,157,84
34020,-0.94092,0.15112,0.21289,16,55,157,84
34040,-0.93897,-0.21704,0.20264,16,55,157,84
34060,-0.97778,-0.16138,0.17554,16,55,157,84
34080,-0.95508,0.00366,0.0551799999999999,16,55,157,84
34100,-0.8847700000000001,0.01318,-0.35669,16,55,157,84
34120,-0.94165,-0.22754,0.16577,16,55,157,84
34140,-0.93897,0.16333,0.22363,16,55,157,84
34160,-0.8547399999999999,0.30322,0.23389,16,55,157,84
34180,-0.95679,-0.1735799999999999,0.03467,16,55,157,84
34200,-0.87329,0.11157,0.38355,16,55,157,84
34220,-0.94971,-0.03369,-0.1704099999999999,16,55,157,84
34240,-0.89795,0.12085,0.3855,16,55,157,84
34260,-0.95825,-0.15161,0.12158,16,55,157,84
34280,-0.88355,-0.2063,-0.34033,16,55,157,84
34300,-0.95142,0.00293,-0.17798,16,55,157,84
34320,-0.94605,-0.1831,0.18652,16,55,157,84
34340,-0.9519,0.1057099999999999,0.07422,16,55,157,84
34360,-0.95923,-0.06811,-0.20483,16,55,157,84
34380,-0.94019,-0.19702,0.18481,16,55,157,84
34400,-0.95142,0.12769,0.1189,16,55,157,84
34420,-0.90967,-0.13208,-0.31519,16,55,157,84
34440,-0.92407,-0.16943,0.30884,16,55,157,84
34460,-0.93897,0.06103,-0.18628,16,55,157,84
34480,-0.92847,-0.19775,0.19165,16,55,157,84
34500,-0.8952600000000001,0.28125,0.25122,16,55,157,84
34520,-0.94141,-0.20386,0.18286,16,55,157,84
34540,-0.96118,-0.16895,0.04346,16,55,157,84
34560,-0.93384,0.00732,-0.18188,16,55,157,84
34580,-0.9331,-0.16797,0.22607,16,55,157,84
34600,-0.90478,0.19165,0.35107,16,55,157,84
34620,-0.7905300000000001,-0.01953,-0.55884,16,55,157,84
34640,-0.91675,0.11035,0.3396,16,55,157,84
34660,-0.94946,-0.1648,0.08667,16,55,157,84
34680,-0.96069,-0.1416,-0.08179,16,55,157,84
34700,-0.95166,-0.01416,-0.17749,16,55,157,84
34720,-0.94775,-0.20239,0.13892,16,55,157,84
34740,-0.95459,-0.17236,0.15112,16,55,157,84
34760,-0.96069,-0.1626,0.1106,16,55,157,84
34780,-0.88135,0.14868,0.4043,16,55,157,84
34800,-0.92505,-0.20459,0.18628,16,55,157,84
34820,-0.92261,-0.06811,-0.22656,16,55,157,84
34840,-0.89331,0.11401,0.42627,16,55,157,84
34860,-0.8830600000000001,0.302,0.25464,16,55,157,84
34880,-0.8869600000000001,0.28638,0.23364,16,55,157,84
34900,-0.95727,-0.15308,-0.14966,16,55,157,84
34920,-0.92041,-0.10913,-0.2146,16,55,157,84
34940,-0.98023,-0.09619,0.14502,16,55,157,84
34960,-0.93262,0.18018,0.19556,16,55,157,84
34980,-0.8794,0.34131,0.22998,16,55,157,84
35000,-0.93945,-0.16089,0.15088,16,55,157,84
35020,-0.87305,0.3291,0.24341,16,55,157,84
35040,-0.8825700000000001,0.31909,0.24536,16,55,157,84
35060,-0.92676,-0.1330599999999999,-0.28735,16,55,157,84
35080,-0.88184,0.32739,0.23706,16,55,157,84
35100,-0.8847700000000001,0.3147,0.23657,16,55,157,84
35120,-0.92383,-0.11377,-0.25488,16,55,157,84
35140,-0.84546,-0.13525,-0.48315,16,55,157,84
35160,-0.95581,-0.07105,0.04346,16,55,157,84
35180,-0.93726,0.18286,0.19385,16,55,157,84
35200,-0.8510700000000001,0.36157,0.20703,16,55,157,84
35220,-0.8859899999999999,-0.12451,-0.39966,16,55,157,84
35240,-0.8535200000000001,-0.12354,-0.4563,16,55,157,84
35260,-0.84424,0.36719,0.24658,16,55,157,84
35280,-0.92456,-0.19751,0.30713,16,55,157,84
35300,-0.90991,-0.08106,-0.34204,16,55,157,84
35320,-0.91162,-0.11621,-0.28686,16,55,157,84
35340,-0.93115,-0.02979,0.37793,16,55,157,84
35360,-0.95508,-0.146,0.13062,16,55,157,84
35380,-0.96313,-0.16138,0.16895,16,55,157,84
35400,-0.95068,-0.16504,0.17969,16,55,157,84
35420,-0.89941,0.30762,0.23608,16,55,157,84
35440,-0.96533,0.09229,0.21387,16,55,157,84
35460,-0.94043,0.03735,0.37329,16,55,157,84
35480,-0.95337,-0.18628,0.21143,16,55,157,84
35500,-0.79077,-0.08008,-0.56665,16,55,157,84
35520,-0.89404,-0.01685,-0.34424,16,55,157,84
35540,-0.94385,-0.03369,-0.27148,16,55,157,84
35560,-0.92749,-0.23779,0.08667,16,55,157,84
35580,-0.84351,0.3335,0.26221,16,55,157,84
35600,-0.8977,0.30273,0.28833,16,55,157,84
35620,-0.85767,-0.0227,-0.46411,16,55,157,84
35640,-0.7673300000000001,-0.18164,-0.5844699999999999,16,55,157,84
35660,-0.93481,-0.21387,0.16162,16,55,157,84
35680,-0.94092,-0.21509,0.17163,16,55,157,84
35700,-0.93652,-0.21777,0.20068,16,55,157,84
35720,-0.87305,0.3291,0.24341,16,55,157,84
35740,-0.93408,-0.22266,0.20825,16,55,157,84
35760,-0.8794,0.33862,0.26416,16,55,157,84
35780,-0.9585,0.10376,0.15771,16,55,157,84
35800,-0.93359,-0.21167,0.2085,16,55,157,84
35820,-0.9436,-0.19556,0.25977,16,55,157,84
35840,-0.97754,-0.20508,0.16089,16,55,157,84
35860,-0.89941,0.30981,0.21948,16,55,157,84
35880,-1.0015,0.00342,0.00317,16,55,157,84
35900,-0.96899,-0.1560099999999999,0.02832,16,55,157,84
35920,-0.85449,-0.09546,-0.45215,16,55,157,84
35940,-0.96387,-0.14917,0.1272,16,55,157,84
35960,-0.95727,-0.18262,0.05908,16,55,157,84
35980,-0.96167,-0.14429,0.10645,16,55,157,84
36000,-0.9187,-0.01611,-0.33032,17,30,178,88
36020,-0.96289,-0.14282,-0.20483,17,30,178,88
36040,-0.94605,-0.19336,0.20215,17,30,178,88
36060,-0.8938,0.30151,0.22168,17,30,178,88
36080,-0.92578,-0.23193,0.18213,17,30,178,88
36100,-0.93506,-0.19385,0.14551,17,30,178,88
36120,-0.91577,-0.19263,0.13818,17,30,178,88
36140,-0.82105,-0.12402,-0.50903,17,30,178,88
36160,-0.95117,0.0437,-0.14014,17,30,178,88
36180,-0.94775,0.12866,0.22778,17,30,178,88
36200,-0.86279,-0.09424,-0.43994,17,30,178,88
36220,-0.9436,-0.1936,0.17261,17,30,178,88
36240,-0.95825,0.10034,0.07471,17,30,178,88
36260,-0.8291,-0.01856,-0.49292,17,30,178,88
36280,-0.9519,-0.1425799999999999,-0.07935,17,30,178,88
36300,-0.8823200000000001,-0.20874,0.16748,17,30,178,88
36320,-0.90234,0.31494,0.16455,17,30,178,88
36340,-0.8630399999999999,-0.04004,-0.4231,17,30,178,88
36360,-0.8869600000000001,0.3418,0.23511,17,30,178,88
36380,-0.75366,-0.04565,-0.46045,17,30,178,88
36400,-0.8198200000000001,-0.06201,-0.51025,17,30,178,88
36420,-0.8757299999999999,0.28174,0.26587,17,30,178,88
36440,-0.89185,0.31714,0.17114,17,30,178,88
36460,-0.93433,-0.08447,-0.19238,17,30,178,88
36480,-0.94409,-0.21216,0.19751,17,30,178,88
36500,-0.87476,0.32642,0.23804,17,30,178,88
36520,-0.87036,0.24512,0.19092,17,30,178,88
36540,-0.83765,0.1652799999999999,0.26343,17,30,178,88
36560,-0.94946,0.10107,0.19629,17,30,178,88
36580,-0.94898,0.12085,0.1936,17,30,178,88
36600,-0.96997,-0.04346,-0.08814,17,30,178,88
36620,-0.91016,-0.04346,0.37427,17,30,178,88
36640,-0.86475,-0.09302,-0.40112,17,30,178,88
36660,-0.8845200000000001,-0.11621,-0.40381,17,30,178,88
36680,-0.94507,-0.198,0.07544,17,30,178,88
36700,-0.77612,-0.13721,-0.56348,17,30,178,88
36720,-0.94287,-0.23242,0.11719,17,30,178,88
36740,-0.73706,-0.14673,-0.63135,17,30,178,88
36760,-0.87134,-0.17432,-0.427,17,30,178,88
36780,-0.96289,-0.13989,0.11108,17,30,178,88
36800,-0.92163,-0.07471,-0.29321,17,30,178,88
36820,-0.90454,-0.15649,-0.17505,17,30,178,88
36840,-0.96094,-0.18408,0.10815,17,30,178,88
36860,-0.94312,-0.08716,-0.24707,17,30,178,88
36880,-0.96191,-0.20581,0.14551,17,30,178,88
36900,-0.89087,0.32471,0.23633,17,30,178,88
36920,-0.8640100000000001,0.29224,0.35059,17,30,178,88
36940,-0.96118,-0.19751,0.1416,17,30,178,88
36960,-0.89331,-0.19751,-0.32056,17,30,178,88
36980,-0.89941,0.12012,0.41919,17,30,178,88
37000,-0.94409,-0.03369,-0.1831,17,30,178,88
37020,-0.9003899999999999,0.29004,0.26611,17,30,178,88
37040,-0.94141,-0.23242,0.10327,17,30,178,88
37060,-0.89502,-0.19458,0.33545,17,30,178,88
37080,-0.93677,-0.20313,0.16065,17,30,178,88
37100,-0.94653,0.13794,0.20166,17,30,178,88
37120,-0.93042,-0.1958,0.10913,17,30,178,88
37140,-0.94653,-0.17554,0.24219,17,30,178,88
37160,-0.95288,-0.1330599999999999,0.08057,17,30,178,88
37180,-0.97192,-0.18652,0.03613,17,30,178,88
37200,-0.95727,-0.13892,-0.10669,17,30,178,88
37220,-0.95654,-0.13672,0.04419,17,30,178,88
37240,-0.8986799999999999,0.26685,0.25513,17,30,178,88
37260,-0.9331,-0.20117,0.28784,17,30,178,88
37280,-0.94873,0.00195,-0.21411,17,30,178,88
37300,-0.87402,0.37549,0.16748,17,30,178,88
37320,-0.9209,0.07349,0.1425799999999999,17,30,178,88
37340,-0.90747,-0.09961,-0.38135,17,30,178,88
37360,-0.95239,0.11401,0.15796,17,30,178,88
37380,-0.95288,0.1228,0.13379,17,30,178,88
37400,-0.97485,-0.0647,-0.11719,17,30,178,88
37420,-0.92114,-0.15503,-0.28784,17,30,178,88
37440,-0.94141,-0.20947,0.19946,17,30,178,88
37460,-0.9624,-0.00537,-0.16968,17,30,178,88
37480,-0.82129,-0.04394,-0.50513,17,30,178,88
37500,-0.948,0.06934,0.20313,17,30,178,88
37520,-0.93018,0.16187,0.17188,17,30,178,88
37540,-0.95752,-0.14624,0.11768,17,30,178,88
37560,-0.93921,0.18115,0.20898,17,30,178,88
37580,-0.95508,-0.03857,-0.18677,17,30,178,88
37600,-0.88525,0.33545,0.24683,17,30,178,88
37620,-0.92188,-0.07227,-0.25561,17,30,178,88
37640,-0.8667,0.32935,0.26587,17,30,178,88
37660,-0.98315,0.11279,0.16357,17,30,178,88
37680,-0.94702,-0.05127,0.09033,17,30,178,88
37700,-1.0054,-0.00244,-0.03516,17,30,178,88
37720,-0.8967299999999999,-0.1897,0.17212,17,30,178,88
37740,-0.94702,0.09033,0.19019,17,30,178,88
37760,-0.94727,0.16113,0.21948,17,30,178,88
37780,-0.94678,0.09131,-0.20825,17,30,178,88
37800,-0.97022,0.09668,0.12646,17,30,178,88
37820,-0.89844,-0.15405,0.31152,17,30,178,88
37840,-0.88281,0.34009,0.25757,17,30,178,88
37860,-0.948,-0.20264,0.18359,17,30,178,88
37880,-0.95093,-0.21973,0.22217,17,30,178,88
37900,-0.94629,-0.22754,0.04785,17,30,178,88
37920,-0.94605,-0.1831,0.18652,17,30,178,88
37940,-0.95044,0.17065,0.19067,17,30,178,88
37960,-0.93774,-0.20288,0.17847,17,30,178,88
37980,-0.94214,0.13452,0.21582,17,30,178,88
38000,-0.93164,0.12842,-0.19849,17,30,178,88
38020,-0.93359,0.03296,-0.16309,17,30,178,88
38040,-0.92261,-0.11084,-0.22437,17,30,178,88
38060,-0.91968,-0.2334,0.19434,17,30,178,88
38080,-0.96802,0.1189,0.1394,17,30,178,88
38100,-0.8964799999999999,-0.07349,-0.13623,18,62,151,76
38120,-0.96069,-0.17285,0.08057,18,62,151,76
38140,-0.86816,-0.12646,-0.39648,18,62,151,76
38160,-0.91187,-0.08276,-0.26074,18,62,151,76
38180,-0.93433,-0.19775,0.18945,18,62,151,76
38200,-0.90308,-0.09204,-0.2898,18,62,151,76
38220,-0.95581,0.13086,0.11011,18,62,151,76
38240,-0.92969,0.15259,0.1875,18,62,151,76
38260,-0.90894,-0.1333,-0.27539,18,62,151,76
38280,-0.67871,-0.16992,-0.6875,18,62,151,76
38300,-0.95605,-0.20215,0.07837,18,62,151,76
38320,-0.88159,0.34106,0.23023,18,62,151,76
38340,-0.93823,0.1328099999999999,0.22998,18,62,151,76
38360,-0.89331,0.20996,0.31226,18,62,151,76
38380,-0.97266,-0.13721,-0.06348,18,62,151,76
38400,-0.93481,-0.18091,-0.19898,18,62,151,76
38420,-0.91504,0.01025,-0.16724,18,62,151,76
38440,-0.88989,0.33618,0.40186,18,62,151,76
38460,-0.97119,-0.24609,0.0549299999999999,18,62,151,76
38480,-0.95239,0.11694,0.12451,18,62,151,76
38500,-0.91211,-0.20142,0.30542,18,62,151,76
38520,-0.9353,0.06348,-0.07568,18,62,151,76
38540,-0.8847700000000001,0.3147,0.23657,18,62,151,76
38560,-0.88721,-0.08423,-0.4177300000000001,18,62,151,76
38580,-0.8999,0.29346,0.24414,18,62,151,76
38600,-0.94287,0.1655299999999999,0.19043,18,62,151,76
38620,-0.93677,-0.16382,-0.20923,18,62,151,76
38640,-0.94409,-0.20264,0.1853,18,62,151,76
38660,-0.97315,-0.16138,0.05884,18,62,151,76
38680,-0.94751,0.09131,0.22315,18,62,151,76
38700,-0.95605,-0.00171,-0.13355,18,62,151,76
38720,-0.88989,0.32495,0.22681,18,62,151,76
38740,-0.88184,0.02051,-0.4165,18,62,151,76
38760,-0.8967299999999999,-0.11792,-0.37402,18,62,151,76
38780,-0.95508,-0.02661,-0.25146,18,62,151,76
38800,-0.88794,0.31885,0.24316,18,62,151,76
38820,-0.93408,-0.18994,0.22046,18,62,151,76
38840,-0.89087,0.31152,0.22681,18,62,151,76
38860,-0.93652,0.08789,0.1787099999999999,18,62,151,76
38880,-0.88159,-0.14844,-0.30298,18,62,151,76
38900,-0.95483,-0.17017,0.10181,18,62,151,76
38920,-0.93262,-0.14819,-0.25464,18,62,151,76
38940,-0.95166,-0.02905,-0.18286,18,62,151,76
38960,-0.92676,0.10791,-0.22607,18,62,151,76
38980,-0.87866,0.33008,0.23706,18,62,151,76
39000,-0.91406,0.17188,0.26172,18,62,151,76
39020,-0.93677,0.1704099999999999,0.18896,18,62,151,76
39040,-0.91675,-0.19605,0.32813,18,62,151,76
39060,-0.94898,-0.19312,0.16357,18,62,151,76
39080,-0.94629,-0.17432,0.15991,18,62,151,76
39100,-0.89966,0.28735,0.23462,18,62,151,76
39120,-0.91113,0.12231,0.30005,18,62,151,76
39140,-0.9519,-0.14282,-0.06274,18,62,151,76
39160,-0.93384,0.1416,0.2289999999999999,18,62,151,76
39180,-0.95068,0.07544,0.19678,18,62,151,76
39200,-0.94873,-0.16309,0.2289999999999999,18,62,151,76
39220,-0.86182,-0.04394,-0.46167,18,62,151,76
39240,-0.94531,0.08032,0.19287,18,62,151,76
39260,-0.90381,-0.10669,-0.33472,18,62,151,76
39280,-0.95215,-0.04785,0.21753,18,62,151,76
39300,-0.86475,-0.09888,-0.44165,18,62,151,76
39320,-0.94458,-0.21338,0.0549299999999999,18,62,151,76
39340,-0.8342299999999999,0.05029,-0.49927,18,62,151,76
39360,-0.9248,-0.21948,0.19067,18,62,151,76
39380,-0.9624,-0.11987,0.12158,18,62,151,76
39400,-0.94653,-0.20532,0.1814,18,62,151,76
39420,-0.94092,0.21899,0.28491,18,62,151,76
39440,-0.94849,-0.16821,0.22681,18,62,151,76
39460,-0.94531,0.28027,0.22168,18,62,151,76
39480,-0.90161,-0.02783,-0.34253,18,62,151,76
39500,-0.92188,0.14819,0.24072,18,62,151,76
39520,-0.95386,-0.18213,-0.13745,18,62,151,76
39540,-0.96533,0.03931,-0.09961,18,62,151,76
39560,-0.88159,-0.14844,-0.30298,18,62,151,76
39580,-0.89697,0.2981,0.21753,18,62,151,76
39600,-0.7727,-0.0835,-0.5791,18,62,151,76
39620,-0.82642,-0.1425799999999999,-0.51172,18,62,151,76
39640,-0.95435,0.08301,0.1377,18,62,151,76
39660,-0.97583,-0.0820299999999999,-0.02905,18,62,151,76
39680,-0.93677,0.1704099999999999,0.18896,18,62,151,76
39700,-0.94824,0.11157,0.18628,18,62,151,76
39720,-0.9397,0.16455,0.2002,18,62,151,76
39740,-0.94702,-0.12573,-0.22559,18,62,151,76
39760,-0.8847700000000001,0.33032,0.24902,18,62,151,76
39780,-0.95483,-0.15063,0.11328,18,62,151,76
39800,-0.93066,0.16797,0.17456,18,62,151,76
39820,-0.94458,-0.03833,-0.05689,18,62,151,76
39840,-0.94092,0.09473,0.19873,18,62,151,76
39860,-0.93115,0.11255,-0.21558,18,62,151,76
39880,-0.80371,0.33789,0.34277,18,62,151,76
39900,-0.93945,-0.10474,-0.02051,18,62,151,76
39920,-0.88184,0.2644,0.22046,18,62,151,76
39940,-0.94898,-0.04492,0.33862,18,62,151,76
39960,-0.93335,0.15479,0.23462,18,62,151,76
39980,-0.91577,-0.05444,0.36523,18,62,151,76
40000,-0.9502,-0.18188,0.19238,18,62,151,76
40020,-0.71167,-0.15259,-0.6442899999999999,18,62,151,76
40040,-0.94727,-0.18774,0.12183,18,62,151,76
40060,-0.95288,-0.00879,-0.18408,18,62,151,76
40080,-0.85156,-0.09448,-0.41504,18,62,151,76
40100,-0.95386,-0.17261,0.18213,18,62,151,76
40120,-0.95386,0.15869,0.21167,18,62,151,76
40140,-0.87915,0.11816,0.40576,18,62,151,76
40160,-0.94336,0.19556,0.20776,18,62,151,76
40180,-0.95996,0.10913,0.15771,18,62,151,76
40200,-0.73706,-0.14673,-0.63135,18,62,151,76
40220,-0.94043,0.11353,0.18896,18,62,151,76
40240,-0.95874,-0.18066,0.14893,18,62,151,76
40260,-0.91968,0.21021,0.22925,18,62,151,76
40280,-0.8999,0.11499,0.42383,18,62,151,76
40300,-0.9331,-0.03833,-0.19629,18,62,151,76
40320,-0.85596,0.33887,0.22827,18,62,151,76
40340,-0.93945,-0.20825,0.19922,19,21,172,56
40360,-0.85645,0.36328,0.13184,19,21,172,56
40380,-0.96094,-0.15796,0.15625,19,21,172,56
40400,-0.90454,-0.104,-0.27734,19,21,172,56
40420,-0.93799,-0.24463,0.11646,19,21,172,56
40440,-0.9397,-0.21777,0.20825,19,21,172,56
40460,-0.87305,0.32788,0.25049,19,21,172,56
40480,-0.90991,-0.19605,0.31543,19,21,172,56
40500,-0.8735299999999999,-0.12036,-0.38989,19,21,172,56
40520,-0.92773,-0.03613,-0.30176,19,21,172,56
40540,-0.87964,-0.22046,0.10474,19,21,172,56
40560,-0.95093,-0.21973,0.22217,19,21,172,56
40580,-0.84619,-0.09277,-0.44482,19,21,172,56
40600,-0.93677,-0.2085,0.2124,19,21,172,56
40620,-0.96289,0.0144,0.01245,19,21,172,56
40640,-0.8742700000000001,0.2417,0.34448,19,21,172,56
40660,-0.9502,-0.1106,0.14282,19,21,172,56
40680,-0.91943,0.10083,0.28491,19,21,172,56
40700,-0.96313,-0.16138,0.16895,19,21,172,56
40720,-0.93457,0.12573,0.27319,19,21,172,56
40740,-0.8894,-0.15259,-0.37378,19,21,172,56
40760,-0.93506,0.17017,0.20508,19,21,172,56
40780,-0.8635200000000001,-0.09546,-0.44458,19,21,172,56
40800,-0.94067,-0.1499,0.16773,19,21,172,56
40820,-0.93897,0.24414,0.19751,19,21,172,56
40840,-0.9541,-0.21875,0.08814,19,21,172,56
40860,-0.93994,-0.21484,0.20142,19,21,172,56
40880,-0.93677,-0.23145,0.16333,19,21,172,56
40900,-0.86108,-0.09399,-0.42627,19,21,172,56
40920,-0.91724,-0.20166,0.30005,19,21,172,56
40940,-0.93628,0.1355,0.23145,19,21,172,56
40960,-0.92725,-0.19214,0.12305,19,21,172,56
40980,-0.8630399999999999,0.32886,0.22827,19,21,172,56
41000,-0.93726,0.1640599999999999,0.18262,19,21,172,56
41020,-0.94605,-0.19336,0.20215,19,21,172,56
41040,-0.84351,0.3396,0.27344,19,21,172,56
41060,-0.87671,0.22754,0.32422,19,21,172,56
41080,-0.95703,0.10083,0.17261,19,21,172,56
41100,-0.87231,0.3811,0.18335,19,21,172,56
41120,-0.93726,-0.20459,0.1394,19,21,172,56
41140,-0.96997,-0.1582,-0.07666,19,21,172,56
41160,-0.93555,0.17578,0.18164,19,21,172,56
41180,-0.93555,0.15747,0.1704099999999999,19,21,172,56
41200,-0.91846,0.24951,0.29468,19,21,172,56
41220,-0.99145,-0.14697,0.10938,19,21,172,56
41240,-0.94824,-0.19922,0.17065,19,21,172,56
41260,-0.94238,0.16699,0.20239,19,21,172,56
41280,-0.74365,-0.00293,-0.64063,19,21,172,56
41300,-0.9375,0.08374,0.22852,19,21,172,56
41320,-0.9458,0.00513,-0.19702,19,21,172,56
41340,-0.94141,0.08814,0.23828,19,21,172,56
41360,-0.80176,-0.15918,-0.52881,19,21,172,56
41380,-0.94507,-0.1897,0.16748,19,21,172,56
41400,-0.97046,0.0737299999999999,0.20898,19,21,172,56
41420,-0.95679,-0.1731,0.20776,19,21,172,56
41440,-0.86035,-0.09082,-0.45068,19,21,172,56
41460,-0.92944,-0.0669,0.38281,19,21,172,56
41480,-0.94653,0.15527,0.1648,19,21,172,56
41500,-0.95801,-0.20117,0.18188,19,21,172,56
41520,-0.92017,-0.04004,-0.28833,19,21,172,56
41540,-0.92944,0.12915,0.2085,19,21,172,56
41560,-0.8925799999999999,0.302,0.22363,19,21,172,56
41580,-0.96387,-0.18359,0.16113,19,21,172,56
41600,-0.9397,-0.2063,0.19141,19,21,172,56
41620,-0.94824,-0.00732,-0.20313,19,21,172,56
41640,-0.96265,-0.177,0.00122,19,21,172,56
41660,-0.8811,0.3229999999999999,0.25513,19,21,172,56
41680,-0.88159,0.3335,0.25391,19,21,172,56
41700,-0.87671,0.12354,0.39697,19,21,172,56
41720,-0.93262,-0.14819,-0.25464,19,21,172,56
41740,-0.9187,-0.18018,0.29321,19,21,172,56
41760,-0.9585,0.04443,-0.14355,19,21,172,56
41780,-0.96387,-0.13135,0.03979,19,21,172,56
41800,-0.8891600000000001,0.34302,0.29199,19,21,172,56
41820,-0.93848,-0.17749,0.2168,19,21,172,56
41840,-0.948,-0.10693,0.03296,19,21,172,56
41860,-0.91382,-0.04785,-0.39063,19,21,172,56
41880,-0.83252,-0.00928,-0.47314,19,21,172,56
41900,-0.94995,-0.20435,0.0529799999999999,19,21,172,56
41920,-0.92163,-0.19312,0.27881,19,21,172,56
41940,-1.033,-0.08447,0.1738299999999999,19,21,172,56
41960,-0.93286,-0.07153,-0.24487,19,21,172,56
41980,-0.95239,-0.20459,0.08545,19,21,172,56
42000,-0.90234,0.31494,0.16455,19,21,172,56
42020,-0.93579,0.1936,0.19141,19,21,172,56
42040,-0.8859899999999999,0.33374,0.25244,19,21,172,56
42060,-0.95044,-0.04346,-0.18115,19,21,172,56
42080,-0.89697,0.2981,0.21753,19,21,172,56
42100,-0.90332,0.13525,0.38818,19,21,172,56
42120,-0.87915,0.13159,0.4292,19,21,172,56
42140,-0.94751,0.16602,0.20727,19,21,172,56
42160,-0.8891600000000001,0.32959,0.23828,19,21,172,56
42180,-0.94165,-0.20166,0.19678,19,21,172,56
42200,-0.95825,0.01123,-0.02856,19,21,172,56
42220,-0.89917,-0.13013,-0.21875,19,21,172,56
42240,-0.87305,0.07178,0.47339,19,21,172,56
42260,-0.95947,0.12207,0.13989,19,21,172,56
42280,-0.94067,-0.21802,0.17017,19,21,172,56
42300,-0.87524,0.33057,0.23608,19,21,172,56
42320,-0.89697,0.32398,0.24927,19,21,172,56
42340,-0.94727,-0.17798,0.18506,19,21,172,56
42360,-0.95825,0.10034,0.07471,19,21,172,56
42380,-0.95972,0.10913,0.21924,19,21,172,56
42400,-0.95972,-0.14697,0.12158,19,21,172,56
42420,-1.0034,0.00464,-0.19263,19,21,172,56
42440,-0.92188,-0.21362,0.18945,19,21,172,56
42460,-0.92505,-0.17236,0.19067,19,21,172,56
42480,-0.90674,0.09302,0.34668,19,21,172,56
42500,-0.96069,0.09497,0.12671,19,21,172,56
42520,-0.91382,0.2063,0.2334,19,21,172,56
42540,-0.93994,0.16357,0.19312,19,21,172,56
42560,-0.88159,0.3335,0.25391,19,21,172,56
42580,-0.91748,-0.1643099999999999,-0.3418,19,21,172,56
42600,-0.97876,-0.02979,-0.03052,19,21,172,56
42620,-0.89575,0.29639,0.21191,19,21,172,56
42640,-0.95703,-0.1655299999999999,0.05689,19,21,172,56
42660,-0.93433,0.16138,0.20776,19,21,172,56
42680,-0.96631,-0.03906,-0.0551799999999999,19,21,172,56
42700,-0.94946,0.19751,-0.23828,19,21,172,56
42720,-0.96191,-0.00244,-0.11255,19,21,172,56
42740,-0.91235,-0.13135,-0.3229999999999999,19,21,172,56
42760,-0.93897,-0.13159,-0.07812,19,21,172,56
42780,-0.95923,-0.0459,-0.13062,19,21,172,56
42800,-0.93433,-0.21533,0.19116,19,21,172,56
42820,-0.86987,-0.11768,-0.24121,19,21,172,56
42840,-0.95532,0.06738,0.18286,20,41,186,66
42860,-0.94043,0.14722,0.21753,20,41,186,66
42880,-0.88428,0.11816,0.38379,20,41,186,66
42900,-0.93408,0.13184,0.20801,20,41,186,66
42920,-0.95483,0.16284,0.20703,20,41,186,66
42940,-0.95776,-0.02612,-0.05957,20,41,186,66
42960,-0.95727,-0.21289,0.06006,20,41,186,66
42980,-0.94898,-0.16235,0.06665,20,41,186,66
43000,-0.89551,0.03149,0.38135,20,41,186,66
43020,-0.93188,0.15234,0.20508,20,41,186,66
43040,-0.96069,-0.146,0.11694,20,41,186,66
43060,-0.91602,0.22827,0.18994,20,41,186,66
43080,-0.94116,-0.20654,0.18799,20,41,186,66
43100,-0.8855,0.33057,0.25977,20,41,186,66
43120,-0.92139,-0.1106,-0.29956,20,41,186,66
43140,-0.91724,0.24829,0.27393,20,41,186,66
43160,-0.8291,0.04077,-0.49658,20,41,186,66
43180,-0.97559,-0.10791,-0.07275,20,41,186,66
43200,-0.8855,0.32471,0.23828,20,41,186,66
43220,-0.89307,0.28638,0.24658,20,41,186,66
43240,-0.95044,0.11279,0.15137,20,41,186,66
43260,-0.94922,0.06909,0.1425799999999999,20,41,186,66
43280,-0.97778,-0.16138,0.17554,20,41,186,66
43300,-0.91748,0.14477,0.21899,20,41,186,66
43320,-0.83594,-0.01782,-0.52563,20,41,186,66
43340,-0.93823,-0.1145,-0.21973,20,41,186,66
43360,-0.92188,-0.21362,0.18945,20,41,186,66
43380,-1.1021,-0.12769,-0.0105,20,41,186,66
43400,-0.89502,0.22607,0.21899,20,41,186,66
43420,-0.95068,0.00366,-0.21118,20,41,186,66
43440,-0.94995,-0.03979,-0.18848,20,41,186,66
43460,-0.95044,0.11279,0.15137,20,41,186,66
43480,-0.96167,-0.19922,0.1626,20,41,186,66
43500,-0.94238,-0.19312,0.21094,20,41,186,66
43520,-0.92871,-0.17236,0.18823,20,41,186,66
43540,-0.8757299999999999,0.28174,0.26587,20,41,186,66
43560,-0.8361799999999999,-0.0136699999999999,-0.50781,20,41,186,66
43580,-0.87671,0.12354,0.39697,20,41,186,66
43600,-0.92725,-0.17188,-0.37915,20,41,186,66
43620,-0.9563,0.16992,-0.08472,20,41,186,66
43640,-0.94385,0.0061,-0.21387,20,41,186,66
43660,-0.84985,0.27686,0.32324,20,41,186,66
43680,-0.90185,0.13818,0.35376,20,41,186,66
43700,-0.948,0.10718,0.17969,20,41,186,66
43720,-0.95459,-0.14941,0.09985,20,41,186,66
43740,-0.8044399999999999,0.37671,0.36914,20,41,186,66
43760,-0.95459,-0.05933,-0.12646,20,41,186,66
43780,-0.95142,0.06885,0.23804,20,41,186,66
43800,-0.92065,0.15234,0.21973,20,41,186,66
43820,-0.90845,0.1626,-0.22192,20,41,186,66
43840,-0.96191,-0.14917,0.07153,20,41,186,66
43860,-0.95093,-0.02686,-0.16943,20,41,186,66
43880,-0.96265,0.05933,0.27954,20,41,186,66
43900,-0.95654,0.13013,0.1499,20,41,186,66
43920,-0.90527,-0.02588,-0.35132,20,41,186,66
43940,-0.8803700000000001,0.3374,0.25488,20,41,186,66
43960,-0.92798,-0.22046,0.21875,20,41,186,66
43980,-0.8942899999999999,0.28467,0.23145,20,41,186,66
44000,-0.90356,0.30176,0.23755,20,41,186,66
44020,-0.87671,-0.02295,-0.45239,20,41,186,66
44040,-0.93945,-0.19067,0.20923,20,41,186,66
44060,-0.95776,-0.18994,0.15234,20,41,186,66
44080,-0.96875,-0.06909,0.34766,20,41,186,66
44100,-0.94873,0.08814,0.21265,20,41,186,66
44120,-0.94702,0.09033,0.19019,20,41,186,66
44140,-0.8869600000000001,0.33887,0.23828,20,41,186,66
44160,-0.95679,-0.20264,0.19849,20,41,186,66
44180,-0.93237,0.32813,0.3208,20,41,186,66
44200,-0.8925799999999999,-0.21069,0.32788,20,41,186,66
44220,-0.86816,0.20605,-0.39526,20,41,186,66
44240,-0.96655,0.08984,0.11621,20,41,186,66
44260,-0.8779299999999999,-0.19946,0.29663,20,41,186,66
44280,-0.8696299999999999,-0.10474,-0.4411600000000001,20,41,186,66
44300,-0.94092,-0.20117,0.20557,20,41,186,66
44320,-0.9707,-0.20239,0.01196,20,41,186,66
44340,-0.95093,0.1272,0.16821,20,41,186,66
44360,-0.94336,0.10449,0.23145,20,41,186,66
44380,-0.86816,-0.05957,-0.37207,20,41,186,66
44400,-0.85083,-0.04565,-0.46094,20,41,186,66
44420,-0.96118,0.1189,0.0852,20,41,186,66
44440,-0.95215,0.10913,0.19238,20,41,186,66
44460,-0.94458,-0.04907,-0.16797,20,41,186,66
44480,-0.95605,-0.16211,0.2019,20,41,186,66
44500,-0.94605,-0.00244,-0.1936,20,41,186,66
44520,-0.94751,0.08716,0.18921,20,41,186,66
44540,-0.8964799999999999,0.28857,0.22754,20,41,186,66
44560,-0.92847,0.14868,0.35938,20,41,186,66
44580,-0.95532,-0.15479,-0.0669,20,41,186,66
44600,-0.95727,-0.17847,0.20825,20,41,186,66
44620,-0.95044,0.11279,0.20166,20,41,186,66
44640,-0.95435,-0.1655299999999999,-0.2251,20,41,186,66
44660,-0.93286,-0.20166,0.22315,20,41,186,66
44680,-0.92383,0.17261,0.17163,20,41,186,66
44700,-0.8989299999999999,0.25049,0.18604,20,41,186,66
44720,-0.90918,0.1342799999999999,0.20117,20,41,186,66
44740,-0.93603,0.16382,0.18262,20,41,186,66
44760,-0.97022,-0.1328099999999999,0.05127,20,41,186,66
44780,-0.93921,0.1001,-0.19067,20,41,186,66
44800,-0.97461,-0.15161,0.13135,20,41,186,66
44820,-0.95166,-0.21704,0.12524,20,41,186,66
44840,-0.95508,-0.14087,0.13892,20,41,186,66
44860,-0.92139,0.22095,0.1919,20,41,186,66
44880,-0.94287,-0.20166,0.06177,20,41,186,66
44900,-0.93897,-0.22607,0.21118,20,41,186,66
44920,-0.87598,-0.14966,-0.37207,20,41,186,66
44940,-0.85425,-0.10425,-0.44678,20,41,186,66
44960,-0.91431,0.12573,0.23023,20,41,186,66
44980,-0.94165,0.18018,0.19336,20,41,186,66
45000,-0.8645,-0.08935,-0.43872,20,41,186,66
45020,-0.8962399999999999,0.22583,0.32861,20,41,186,66
45040,-0.8789100000000001,-0.12598,-0.39502,20,41,186,66
45060,-0.89331,0.11401,0.42627,20,41,186,66
45080,-0.95727,-0.1023,-0.12256,20,41,186,66
45100,-0.93677,0.10889,0.19678,20,41,186,66
45120,-0.94238,-0.13843,-0.24829,20,41,186,66
45140,-0.94702,-0.20044,0.19702,20,41,186,66
45160,-0.8942899999999999,0.18384,-0.21655,20,41,186,66
45180,-0.92456,-0.104,-0.26758,21,53,156,74
45200,-0.93652,-0.12646,-0.18018,21,53,156,74
45220,-0.8781700000000001,0.32617,0.24341,21,53,156,74
45240,-0.86011,-0.09229,-0.43872,21,53,156,74
45260,-0.8615700000000001,0.1477099999999999,0.38965,21,53,156,74
45280,-0.87769,-0.1423299999999999,-0.3811,21,53,156,74
45300,-0.93457,-0.19922,0.04443,21,53,156,74
45320,-0.8989299999999999,0.25049,0.18604,21,53,156,74
45340,-0.94336,-0.19043,0.21729,21,53,156,74
45360,-0.95337,-0.14893,0.11743,21,53,156,74
45380,-0.97485,-0.16504,-0.25635,21,53,156,74
45400,-0.90527,-0.02588,-0.35132,21,53,156,74
45420,-0.94482,-0.1875,0.1704099999999999,21,53,156,74
45440,-0.95483,0.15479,-0.19434,21,53,156,74
45460,-0.94946,-0.2063,0.15283,21,53,156,74
45480,-0.93384,-0.24023,0.18433,21,53,156,74
45500,-0.94898,-0.19678,-0.08423,21,53,156,74
45520,-0.93921,-0.20996,0.18677,21,53,156,74
45540,-0.94629,-0.21118,0.2146,21,53,156,74
45560,-0.9375,-0.19922,0.20654,21,53,156,74
45580,-0.93457,-0.20752,0.1748,21,53,156,74
45600,-0.94385,-0.2146,0.18628,21,53,156,74
45620,-0.78394,-0.15332,-0.56958,21,53,156,74
45640,-0.91821,-0.13452,-0.29321,21,53,156,74
45660,-0.94751,-0.18994,0.18091,21,53,156,74
45680,-0.93897,0.06103,-0.18628,21,53,156,74
45700,-0.7793,0.37817,0.37085,21,53,156,74
45720,-0.95361,0.08154,0.20874,21,53,156,74
45740,-0.8916,0.3010199999999999,0.21435,21,53,156,74
45760,-0.8706,0.31885,0.22168,21,53,156,74
45780,-0.94922,0.10156,0.19385,21,53,156,74
45800,-0.94898,-0.08984,-0.07544,21,53,156,74
45820,-0.95313,0.08765,0.07007,21,53,156,74
45840,-0.91675,0.26807,0.28833,21,53,156,74
45860,-0.94312,-0.19971,0.20435,21,53,156,74
45880,-0.93408,0.1748,0.19898,21,53,156,74
45900,-0.90723,0.11328,0.33911,21,53,156,74
45920,-0.8205600000000001,0.021,-0.53345,21,53,156,74
45940,-0.94922,0.1057099999999999,0.18579,21,53,156,74
45960,-0.95483,0.15479,-0.19434,21,53,156,74
45980,-0.93433,0.16138,0.20776,21,53,156,74
46000,-0.95288,-0.19751,0.19019,21,53,156,74
46020,-0.94531,-0.10034,-0.1919,21,53,156,74
46040,-0.96094,0.05249,0.15063,21,53,156,74
46060,-0.8825700000000001,0.31909,0.24536,21,53,156,74
46080,-0.91431,-0.11255,-0.25806,21,53,156,74
46100,-0.91968,-0.12402,-0.3269,21,53,156,74
46120,-0.95703,-0.13818,0.12134,21,53,156,74
46140,-0.96509,-0.16455,0.05859,21,53,156,74
46160,-0.93603,0.15112,0.21338,21,53,156,74
46180,-0.96802,-0.02954,-0.04736,21,53,156,74
46200,-0.94263,-0.2124,0.21973,21,53,156,74
46220,-0.96875,-0.13501,0.08789,21,53,156,74
46240,-0.92212,-0.0769,-0.28784,21,53,156,74
46260,-0.95898,-0.05859,-0.01099,21,53,156,74
46280,-0.93066,-0.17944,0.21118,21,53,156,74
46300,-0.94751,0.11816,0.1272,21,53,156,74
46320,-0.96387,-0.18359,0.16113,21,53,156,74
46340,-0.72925,-0.02564,-0.65918,21,53,156,74
46360,-0.94043,0.11353,0.18896,21,53,156,74
46380,-0.95264,-0.04517,-0.18042,21,53,156,74
46400,-1.0134,-0.03052,0.01123,21,53,156,74
46420,-0.92383,0.02051,-0.24902,21,53,156,74
46440,-0.88135,0.14551,0.41602,21,53,156,74
46460,-0.93652,0.18677,0.17065,21,53,156,74
46480,-0.95361,-0.16162,0.15088,21,53,156,74
46500,-0.86987,-0.04663,-0.44141,21,53,156,74
46520,-0.8959999999999999,-0.16357,0.1311,21,53,156,74
46540,-0.93677,-0.1294,0.26221,21,53,156,74
46560,-0.95215,-0.08106,-0.2085,21,53,156,74
46580,-0.8864799999999999,0.31763,0.28369,21,53,156,74
46600,-0.93481,-0.21973,0.19971,21,53,156,74
46620,-0.9248,0.07251,-0.25244,21,53,156,74
46640,-0.93359,-0.19141,0.13794,21,53,156,74
46660,-0.98804,0.02124,-0.08838,21,53,156,74
46680,-0.94019,0.1438,0.271,21,53,156,74
46700,-0.9209,-0.02808,0.29492,21,53,156,74
46720,-0.8855,0.32837,0.2561,21,53,156,74
46740,-0.8669399999999999,-0.10693,-0.39746,21,53,156,74
46760,-0.95435,-0.1655299999999999,-0.2251,21,53,156,74
46780,-0.93164,-0.08032,-0.22876,21,53,156,74
46800,-0.94922,-0.23096,0.08862,21,53,156,74
46820,-0.96851,-0.01416,-0.17554,21,53,156,74
46840,-0.95386,-0.1687,0.21216,21,53,156,74
46860,-0.92822,-0.21045,0.2019,21,53,156,74
46880,-0.93408,0.0822799999999999,0.18066,21,53,156,74
46900,-0.93506,-0.12915,-0.25879,21,53,156,74
46920,-0.94116,-0.21411,0.20654,21,53,156,74
46940,-0.94238,0.16699,0.20239,21,53,156,74
46960,-0.89844,0.20898,-0.19605,21,53,156,74
46980,-0.91406,-0.20996,0.32837,21,53,156,74
47000,-0.8784200000000001,0.37695,0.16626,21,53,156,74
47020,-0.94898,-0.16846,0.10938,21,53,156,74
47040,-0.8715799999999999,0.29028,0.25244,21,53,156,74
47060,-0.95752,-0.0354,0.1106,21,53,156,74
47080,-0.8762200000000001,-0.12354,-0.39624,21,53,156,74
47100,-0.89502,0.33447,0.25537,21,53,156,74
47120,-0.94898,-0.22339,0.11987,21,53,156,74
47140,-0.8789100000000001,-0.12598,-0.39502,21,53,156,74
47160,-0.93652,-0.18481,0.17163,21,53,156,74
47180,-0.93799,-0.21069,0.15723,21,53,156,74
47200,-0.94653,-0.20532,0.1814,21,53,156,74
47220,-0.93481,-0.22388,0.20874,22,46,190,80
47240,-0.86792,0.31323,0.27026,22,46,190,80
47260,-0.95288,-0.05566,-0.07153,22,46,190,80
47280,-0.94824,-0.00732,-0.20313,22,46,190,80
47300,-0.93652,-0.22632,0.12012,22,46,190,80
47320,-0.95532,0.06738,0.18286,22,46,190,80
47340,-0.94629,-0.22339,0.06543,22,46,190,80
47360,-0.8894,0.09326,0.07007,22,46,190,80
47380,-0.9585,0.08545,0.2063,22,46,190,80
47400,-0.95215,0.10913,0.19238,22,46,190,80
47420,-0.97534,0.02979,-0.01733,22,46,190,80
47440,-0.90478,0.28516,0.23657,22,46,190,80
47460,-0.94727,-0.03857,-0.18408,22,46,190,80
47480,-0.90552,0.27905,0.2627,22,46,190,80
47500,-0.93897,-0.16284,0.12451,22,46,190,80
47520,-0.94067,-0.01685,-0.23047,22,46,190,80
47540,-0.87256,0.32715,0.22119,22,46,190,80
47560,-0.95605,-0.11768,-0.00293,22,46,190,80
47580,-0.93555,0.03149,-0.20532,22,46,190,80
47600,-0.93726,-0.20459,0.1394,22,46,190,80
47620,-0.96118,-0.17017,0.00879,22,46,190,80
47640,-0.96558,-0.1543,0.13574,22,46,190,80
47660,-0.8989299999999999,0.27686,0.21875,22,46,190,80
47680,-0.94336,-0.15405,0.01148,22,46,190,80
47700,-0.94898,-0.18286,0.1919,22,46,190,80
47720,-0.94165,0.09741,0.22192,22,46,190,80
47740,-0.87964,0.33008,0.25122,22,46,190,80
47760,-0.95142,-0.18774,0.17065,22,46,190,80
47780,-0.95215,-0.21558,0.20313,22,46,190,80
47800,-0.94019,0.13818,0.22559,22,46,190,80
47820,-0.94043,-0.08691,-0.23291,22,46,190,80
47840,-0.8947700000000001,0.2876,0.2439,22,46,190,80
47860,-0.94336,-0.18433,0.20288,22,46,190,80
47880,-0.86011,-0.10059,-0.44629,22,46,190,80
47900,-0.75732,-0.19727,-0.59082,22,46,190,80
47920,-0.95605,-0.19263,0.05176,22,46,190,80
47940,-0.91431,0.2793,0.11255,22,46,190,80
47960,-0.8999,0.29565,0.22998,22,46,190,80
47980,-0.8877,0.30054,0.31274,22,46,190,80
48000,-0.96069,-0.12305,0.09741,22,46,190,80
48020,-0.8276399999999999,0.2697699999999999,0.36206,22,46,190,80
48040,-0.9602,-0.14819,0.04981,22,46,190,80
48060,-0.87695,0.31885,0.24634,22,46,190,80
48080,-0.91773,0.21118,0.23218,22,46,190,80
48100,-0.8781700000000001,-0.1423299999999999,-0.38135,22,46,190,80
48120,-0.90918,-0.15674,0.25513,22,46,190,80
48140,-0.8339799999999999,0.05762,-0.48145,22,46,190,80
48160,-0.80176,-0.15918,-0.52881,22,46,190,80
48180,-0.88208,-0.05176,-0.31055,22,46,190,80
48200,-0.99121,-0.08008,-0.15063,22,46,190,80
48220,-0.96069,-0.1294,-0.19922,22,46,190,80
48240,-0.88135,0.16382,0.39477,22,46,190,80
48260,-0.88013,0.13037,0.40381,22,46,190,80
48280,-0.91821,-0.14697,-0.14648,22,46,190,80
48300,-0.93018,-0.11743,-0.22974,22,46,190,80
48320,-0.95068,0.12671,0.13013,22,46,190,80
48340,-0.96387,-0.18359,0.08423,22,46,190,80
48360,-0.94458,-0.22241,0.21191,22,46,190,80
48380,-0.80737,-0.00391,-0.5463899999999999,22,46,190,80
48400,-0.93726,-0.19019,0.21118,22,46,190,80
48420,-0.875,-0.01978,-0.4104,22,46,190,80
48440,-0.94287,0.17798,0.19067,22,46,190,80
48460,-0.9003899999999999,0.29004,0.26611,22,46,190,80
48480,-0.94043,-0.22363,0.20557,22,46,190,80
48500,-0.93262,0.07666,0.20557,22,46,190,80
48520,-0.96289,-0.1355,0.13257,22,46,190,80
48540,-0.95288,0.08081,0.15015,22,46,190,80
48560,-0.95044,-0.15259,0.04956,22,46,190,80
48580,-0.93018,0.15137,0.19775,22,46,190,80
48600,-0.96631,-0.03906,-0.0551799999999999,22,46,190,80
48620,-1.0056,-0.20972,0.17334,22,46,190,80
48640,-0.94336,-0.20288,0.20605,22,46,190,80
48660,-0.96143,-0.02026,-0.12427,22,46,190,80
48680,-0.93677,-0.15503,0.13745,22,46,190,80
48700,-0.8942899999999999,0.15454,0.41162,22,46,190,80
48720,-0.93384,0.1330599999999999,0.22974,22,46,190,80
48740,-0.90527,0.22217,0.21655,22,46,190,80
48760,-0.90747,-0.10107,-0.32373,22,46,190,80
48780,-0.96094,-0.18628,0.13989,22,46,190,80
48800,-0.93506,0.17725,0.21851,22,46,190,80
48820,-0.96435,-0.18115,0.04199,22,46,190,80
48840,-0.8623,0.34033,0.41162,22,46,190,80
48860,-0.91528,-0.11768,-0.22827,22,46,190,80
48880,-0.8867200000000001,0.29053,0.29077,22,46,190,80
48900,-0.9602,-0.19653,0.01782,22,46,190,80
48920,-0.8322700000000001,-0.02197,-0.52856,22,46,190,80
48940,-0.9419,-0.19434,0.17725,22,46,190,80
48960,-0.93945,-0.21143,0.20215,22,46,190,80
48980,-0.61743,-0.14014,-0.75293,22,46,190,80
49000,-0.91162,-0.06665,0.31152,22,46,190,80
49020,-0.9436,-0.15869,0.16504,22,46,190,80
49040,-0.93994,-0.20776,0.16577,22,46,190,80
49060,-0.94727,-0.14111,0.10107,22,46,190,80
49080,-0.84839,-0.10962,-0.45972,22,46,190,80
49100,-0.93677,0.01196,-0.21216,22,46,190,80
49120,-0.95068,-0.16089,0.2041,22,46,190,80
49140,-0.8886700000000001,-0.24585,-0.38428,22,46,190,80
49160,-0.96997,-0.16724,0.11182,22,46,190,80
49180,-0.92212,0.15234,0.17676,22,46,190,80
49200,-0.8710899999999999,0.34595,0.198,22,46,190,80
49220,-0.94214,-0.0529799999999999,-0.19434,22,46,190,80
49240,-0.96387,-0.20972,0.04712,22,46,190,80
49260,-0.97437,-0.15454,0.02002,22,46,190,80
49280,-0.95532,-0.02393,-0.17578,22,46,190,80
49300,-0.8886700000000001,0.2522,0.28076,22,46,190,80
49320,-0.88794,0.22998,0.34741,22,46,190,80
49340,-0.8864799999999999,-0.11914,-0.37573,22,46,190,80
49360,-0.93897,-0.18921,0.19092,22,46,190,80
49380,-0.93872,-0.20386,0.21802,22,46,190,80
49400,-0.88794,-0.02808,-0.28857,22,46,190,80
49420,-0.95361,-0.15771,0.10132,22,46,190,80
49440,-0.94458,-0.19653,0.19898,22,46,190,80
49460,-0.927,-0.06372,-0.25659,22,46,190,80
49480,-0.94946,-0.19824,0.21729,22,46,190,80
49500,-0.91919,-0.19385,-0.2312,22,46,190,80
49520,-0.94214,-0.03857,0.11231,22,46,190,80
49540,-0.91626,-0.20215,0.14624,22,46,190,80
49560,-0.9165,-0.1604,0.26709,23,37,194,105
49580,-0.93262,0.10205,0.15869,23,37,194,105
49600,-0.8938,0.30737,0.27026,23,37,194,105
49620,-0.9519,0.10156,0.14941,23,37,194,105
49640,-0.95239,-0.19312,0.17578,23,37,194,105
49660,-0.9563,-0.16699,0.05371,23,37,194,105
49680,-0.97534,-0.15796,-0.10352,23,37,194,105
49700,-0.88403,0.07935,-0.36743,23,37,194,105
49720,-0.8798799999999999,0.1106,-0.29077,23,37,194,105
49740,-0.94165,-0.22754,0.16577,23,37,194,105
49760,-0.93237,-0.22632,0.20508,23,37,194,105
49780,-0.80395,0.0188,-0.54297,23,37,194,105
49800,-0.8869600000000001,0.2666,0.22266,23,37,194,105
49820,-0.95239,0.12354,0.13257,23,37,194,105
49840,-0.9458,-0.21777,0.18213,23,37,194,105
49860,-0.92188,0.1665,0.38184,23,37,194,105
49880,-0.88208,-0.13208,-0.37744,23,37,194,105
49900,-0.8859899999999999,0.1189,0.39697,23,37,194,105
49920,-0.87915,0.33252,0.24023,23,37,194,105
49940,-0.84839,-0.10962,-0.45972,23,37,194,105
49960,-0.95703,-0.0105,-0.15137,23,37,194,105
49980,-0.90503,-0.20117,0.302,23,37,194,105
50000,-0.94824,-0.17554,0.17578,23,37,194,105
50020,-0.92163,-0.07471,-0.29321,23,37,194,105
50040,-0.94238,0.05884,0.1936,23,37,194,105
50060,-0.93994,0.11133,-0.2207,23,37,194,105
50080,-1.1108,0.21509,0.07031,23,37,194,105
50100,-0.92261,-0.06811,-0.22656,23,37,194,105
50120,-0.88281,0.28906,0.22998,23,37,194,105
50140,-0.94678,0.09131,-0.20825,23,37,194,105
50160,-0.91162,-0.06665,0.31152,23,37,194,105
50180,-0.94287,-0.04028,-0.18823,23,37,194,105
50200,-0.95532,0.11475,0.20557,23,37,194,105
50220,-0.95264,0.09399,0.20679,23,37,194,105
50240,-0.8762200000000001,0.00562,-0.3418,23,37,194,105
50260,-0.87231,0.33105,0.23755,23,37,194,105
50280,-0.94605,0.1145,0.18555,23,37,194,105
50300,-0.95166,0.10303,0.18872,23,37,194,105
50320,-0.95923,-0.19873,0.19238,23,37,194,105
50340,-0.9331,-0.21655,0.19409,23,37,194,105
50360,-0.91504,-0.17676,0.32593,23,37,194,105
50380,-0.94214,-0.19678,0.17676,23,37,194,105
50400,-0.92407,0.17749,0.19312,23,37,194,105
50420,-0.95581,0.03955,-0.21753,23,37,194,105
50440,-0.93726,0.05981,-0.24658,23,37,194,105
50460,-0.91968,-0.12402,-0.3269,23,37,194,105
50480,-0.95508,0.07837,0.25391,23,37,194,105
50500,-0.92114,-0.13989,0.30078,23,37,194,105
50520,-0.8999,0.2981,0.23413,23,37,194,105
50540,-0.8547399999999999,-0.09936,-0.44043,23,37,194,105
50560,-1.0076,-0.16797,0.04272,23,37,194,105
50580,-0.92383,-0.19971,0.18091,23,37,194,105
50600,-0.91382,0.25488,0.15552,23,37,194,105
50620,-0.94214,-0.18799,0.20972,23,37,194,105
50640,-0.9541,-0.09595,0.06616,23,37,194,105
50660,-0.90137,-0.14477,-0.30127,23,37,194,105
50680,-0.9331,0.09619,-0.20142,23,37,194,105
50700,-0.94092,-0.07324,-0.25757,23,37,194,105
50720,-0.93433,-0.05371,0.27539,23,37,194,105
50740,-0.95801,-0.17163,-0.13232,23,37,194,105
50760,-0.948,-0.12354,-0.19727,23,37,194,105
50780,-0.97412,-0.1477099999999999,0.12012,23,37,194,105
50800,-0.94116,0.01172,-0.18872,23,37,194,105
50820,-0.94141,0.1394,0.32275,23,37,194,105
50840,-0.93481,0.18213,0.18823,23,37,194,105
50860,-0.95239,-0.15723,0.1438,23,37,194,105
50880,-0.95142,0.10181,0.21069,23,37,194,105
50900,-0.9646,-0.15088,0.11548,23,37,194,105
50920,-0.9419,0.15308,0.21997,23,37,194,105
50940,-0.95898,-0.09326,-0.052,23,37,194,105
50960,-0.94458,-0.19775,0.20532,23,37,194,105
50980,-0.9126,0.26538,0.01025,23,37,194,105
51000,-0.96289,-0.17676,0.04321,23,37,194,105
51020,-0.9563,0.10474,0.15405,23,37,194,105
51040,-0.94287,-0.22119,0.22095,23,37,194,105
51060,-0.96655,0.11426,0.08081,23,37,194,105
51080,-0.8691399999999999,0.11157,0.40796,23,37,194,105
51100,-0.94727,-0.18213,0.14917,23,37,194,105
51120,-0.97266,-0.03394,-0.11963,23,37,194,105
51140,-0.94824,-0.17554,0.17578,23,37,194,105
51160,-0.93262,0.15283,0.24097,23,37,194,105
51180,-0.94629,0.11548,0.2085,23,37,194,105
51200,-0.91382,-0.06152,0.33325,23,37,194,105
51220,-0.93188,-0.18579,0.28735,23,37,194,105
51240,-0.8906299999999999,0.31934,0.26318,23,37,194,105
51260,-0.8449700000000001,-0.11157,-0.47754,23,37,194,105
51280,-0.94531,-0.22485,0.08984,23,37,194,105
