timestamp,accX,accY,accZ,Subject_ID,Age,Height_cm,Weight_kg
0,-0.81421,-0.015381,0.6108399999999999,1,32,163,97
20,-0.8042,-0.004639,0.59302,1,32,163,97
40,-0.79785,-0.011719,0.5835,1,32,163,97
60,-0.8044399999999999,-0.011475,0.59863,1,32,163,97
80,-0.8024899999999999,-0.058105,0.5798300000000001,1,32,163,97
100,-0.8064,-0.00415,0.59228,1,32,163,97
120,-0.80933,-0.022461,0.5776399999999999,1,32,163,97
140,-0.8042,-0.007568,0.59253,1,32,163,97
160,-0.7963899999999999,-0.009033,0.59424,1,32,163,97
180,-0.79395,-0.004883,0.59155,1,32,163,97
200,-0.8125,-0.010986,0.59839,1,32,163,97
220,-0.79688,-0.006104,0.59424,1,32,163,97
240,-0.80908,-0.027832,0.57715,1,32,163,97
260,-0.80493,-0.014648,0.58227,1,32,163,97
280,-0.6682100000000001,0.043457,0.50781,1,32,163,97
300,-0.79785,-0.0063479999999999,0.58887,1,32,163,97
320,-0.7954100000000001,-0.0063479999999999,0.5896,1,32,163,97
340,-0.7922399999999999,-0.010254,0.5896,1,32,163,97
360,-0.7871100000000001,-0.008545,0.5778800000000001,1,32,163,97
380,-0.81397,-0.023926,0.58154,1,32,163,97
400,-0.80786,-0.015137,0.58618,1,32,163,97
420,-0.79614,-0.009033,0.58935,1,32,163,97
440,-0.80078,-0.013184,0.57935,1,32,163,97
460,-0.80835,-0.0144039999999999,0.57739,1,32,163,97
480,-0.81763,-0.018066,0.58765,1,32,163,97
500,-0.79956,-0.003662,0.5852,1,32,163,97
520,-0.80176,-0.0144039999999999,0.5874,1,32,163,97
540,-0.80542,-0.013916,0.5786100000000001,1,32,163,97
560,-0.81494,0.01709,0.5752,1,32,163,97
580,-0.8085899999999999,-0.019531,0.59424,1,32,163,97
600,-0.79443,-0.007812,0.5896,1,32,163,97
620,-0.7998,-0.008057,0.58862,1,32,163,97
640,-0.7951699999999999,-0.005859,0.5795899999999999,1,32,163,97
660,-0.8085899999999999,-0.020508,0.58594,1,32,163,97
680,-0.80469,-0.011963,0.59106,1,32,163,97
700,-0.8066399999999999,-0.005371,0.59131,1,32,163,97
720,-0.80298,-0.005859,0.58813,1,32,163,97
740,-0.79785,-0.016113,0.57739,1,32,163,97
760,-0.80591,-0.0021969999999999,0.59522,1,32,163,97
780,-0.80176,-0.011719,0.59033,1,32,163,97
800,-0.80615,-0.018799,0.57007,1,32,163,97
820,-0.80395,-0.009033,0.58325,1,32,163,97
840,-0.80688,-0.00293,0.59228,1,32,163,97
860,-0.8085899999999999,-0.007568,0.58154,1,32,163,97
880,-0.7973600000000001,-0.007568,0.58301,1,32,163,97
900,-0.80005,-0.005859,0.59815,1,32,163,97
920,-0.8005399999999999,-0.00415,0.59253,1,32,163,97
940,-0.8024899999999999,-0.008545,0.5835,1,32,163,97
960,-0.81592,-0.021973,0.58545,1,32,163,97
980,-0.80615,-0.003906,0.59204,1,32,163,97
1000,-0.7971199999999999,-0.005127,0.5918,1,32,163,97
1020,-0.8042,-0.005859,0.5835,1,32,163,97
1040,-0.8024899999999999,-0.025391,0.57739,1,32,163,97
1060,-0.80298,-0.011963,0.58032,1,32,163,97
1080,-0.81103,-0.01123,0.58862,1,32,163,97
1100,-0.81226,-0.022705,0.58496,1,32,163,97
1120,-0.7998,-0.015381,0.59448,1,32,163,97
1140,-0.78296,-0.00415,0.5874,1,32,163,97
1160,-0.81372,-0.007324,0.6047399999999999,1,32,163,97
1180,-0.80518,-0.008301,0.59473,1,32,163,97
1200,-0.80298,-0.010742,0.58813,1,32,163,97
1220,-0.80102,-0.005371,0.59522,1,32,163,97
1240,-0.7898,-0.011963,0.58691,1,32,163,97
1260,-0.8125,-0.0031739999999999,0.58887,1,32,163,97
1280,-0.7971199999999999,-0.009521,0.58154,1,32,163,97
1300,-0.79273,-0.006592,0.59082,1,32,163,97
1320,-0.79175,-0.00293,0.59815,1,32,163,97
1340,-0.8032199999999999,-0.02124,0.5776399999999999,1,32,163,97
1360,-0.79468,-0.010498,0.58618,1,32,163,97
1380,-0.81201,-0.023926,0.57275,1,32,163,97
1400,-0.8208,-0.017822,0.5786100000000001,1,32,163,97
1420,-0.7951699999999999,-0.011963,0.5896,1,32,163,97
1440,-0.7966300000000001,-0.009521,0.59595,1,32,163,97
1460,-0.80713,-0.013916,0.5878899999999999,1,32,163,97
1480,-0.80835,-0.010742,0.59058,1,32,163,97
1500,-0.80591,-0.004639,0.6057100000000001,1,32,163,97
1520,-0.8286100000000001,-0.007812,0.5764199999999999,1,32,163,97
1540,-0.8044399999999999,-0.007568,0.59082,1,32,163,97
1560,-0.81128,-0.023438,0.58398,1,32,163,97
1580,-0.7954100000000001,-0.008545,0.59839,1,32,163,97
1600,-0.802,-0.0144039999999999,0.6091300000000001,1,32,163,97
1620,-0.81274,-0.025879,0.5791,1,32,163,97
1640,-0.80542,-0.011475,0.59888,1,32,163,97
1660,-0.79932,-0.013916,0.57715,1,32,163,97
1680,-0.80225,-0.010742,0.59106,1,32,163,97
1700,-0.802,-0.010742,0.59326,1,32,163,97
1720,-0.7973600000000001,-0.0144039999999999,0.5786100000000001,1,32,163,97
1740,-0.79492,-0.0144039999999999,0.59204,1,32,163,97
1760,-0.80273,-0.0092769999999999,0.59351,1,32,163,97
1780,-0.8044399999999999,-0.008057,0.58765,1,32,163,97
1800,-0.79956,-0.011963,0.59668,1,32,163,97
1820,-0.80713,-0.010254,0.59473,1,32,163,97
1840,-0.80542,-0.016602,0.5769,1,32,163,97
1860,-0.80542,-0.019775,0.58154,1,32,163,97
1880,-0.7985800000000001,-0.011963,0.59448,2,51,181,80
1900,-0.79883,-0.010986,0.59741,2,51,181,80
1920,-0.79468,-0.009766,0.6001,2,51,181,80
1940,-0.80347,-0.01001,0.5844699999999999,2,51,181,80
1960,-0.802,-0.004883,0.58594,2,51,181,80
1980,-0.81177,-0.021729,0.58423,2,51,181,80
2000,-0.7959,-0.008301,0.5878899999999999,2,51,181,80
2020,-0.80908,-0.014648,0.58081,2,51,181,80
2040,-0.79492,-0.008301,0.59131,2,51,181,80
2060,-0.80395,-0.006104,0.59351,2,51,181,80
2080,-0.80518,-0.008301,0.59473,2,51,181,80
2100,-0.802,-0.011719,0.58813,2,51,181,80
2120,-0.79907,-0.013916,0.59888,2,51,181,80
2140,-0.80981,-0.007324,0.59619,2,51,181,80
2160,-0.7998,-0.009521,0.5957,2,51,181,80
2180,-0.78809,-0.004883,0.57739,2,51,181,80
2200,-0.80884,-0.031494,0.58325,2,51,181,80
2220,-0.81128,-0.026855,0.5791,2,51,181,80
2240,-0.81006,-0.008301,0.5996100000000001,2,51,181,80
2260,-0.80493,-0.023193,0.58008,2,51,181,80
2280,-0.79688,-0.017578,0.58154,2,51,181,80
2300,-0.80981,-0.0141599999999999,0.5856899999999999,2,51,181,80
2320,-0.8012699999999999,-0.009033,0.58716,2,51,181,80
2340,-0.7971199999999999,-0.005615,0.58496,2,51,181,80
2360,-0.80298,-0.011963,0.58032,2,51,181,80
2380,-0.8024899999999999,-0.015137,0.5852,2,51,181,80
2400,-0.80371,-0.0144039999999999,0.59424,2,51,181,80
2420,-0.80518,-0.024902,0.57471,2,51,181,80
2440,-0.7924800000000001,-0.005859,0.58911,2,51,181,80
2460,-0.7981,-0.010254,0.58545,2,51,181,80
2480,-0.8024899999999999,-0.01001,0.5896,2,51,181,80
2500,-0.7951699999999999,-0.015625,0.59522,2,51,181,80
2520,-0.80005,-0.012451,0.5957,2,51,181,80
2540,-0.80591,-0.019043,0.5898399999999999,2,51,181,80
2560,-0.79907,-0.005615,0.5918,2,51,181,80
2580,-0.80737,-0.029785,0.5791,2,51,181,80
2600,-0.80078,-0.00415,0.59106,2,51,181,80
2620,-0.7983399999999999,-0.004395,0.59351,2,51,181,80
2640,-0.80273,0.003418,0.6049800000000001,2,51,181,80
2660,-0.80347,-0.007324,0.5798300000000001,2,51,181,80
2680,-0.8024899999999999,-0.007812,0.5813,2,51,181,80
2700,-0.79761,-0.009033,0.5976600000000001,2,51,181,80
2720,-0.79688,-0.0063479999999999,0.5844699999999999,2,51,181,80
2740,-0.79883,-0.009766,0.59155,2,51,181,80
2760,-0.80957,-0.02124,0.57617,2,51,181,80
2780,-0.8081,-0.012451,0.57422,2,51,181,80
2800,-0.81201,-0.0141599999999999,0.58057,2,51,181,80
2820,-0.80981,-0.008789,0.5813,2,51,181,80
2840,-0.7924800000000001,-0.007324,0.5786100000000001,2,51,181,80
2860,-0.7966300000000001,-0.006104,0.59228,2,51,181,80
2880,-0.80566,-0.0129389999999999,0.58643,2,51,181,80
2900,-0.80493,-0.020996,0.57105,2,51,181,80
2920,-0.80908,-0.016113,0.59375,2,51,181,80
2940,-0.8103,-0.021973,0.5778800000000001,2,51,181,80
2960,-0.80566,-0.015381,0.59448,2,51,181,80
2980,-0.79883,-0.010742,0.59375,2,51,181,80
3000,-0.80981,-0.011963,0.58935,2,51,181,80
3020,-0.80737,-0.006592,0.59009,2,51,181,80
3040,-0.802,-0.003906,0.59863,2,51,181,80
3060,-0.7973600000000001,-0.017334,0.58691,2,51,181,80
3080,-0.80737,-0.005371,0.58838,2,51,181,80
3100,-0.7973600000000001,-0.009521,0.59228,2,51,181,80
3120,-0.81323,-0.028564,0.58862,2,51,181,80
3140,-0.8032199999999999,-0.013916,0.58154,2,51,181,80
3160,-0.80029,-0.006836,0.59058,2,51,181,80
3180,-0.80176,-0.013184,0.59058,2,51,181,80
3200,-0.7932100000000001,-0.008789,0.59228,2,51,181,80
3220,-0.8103,-0.019775,0.5786100000000001,2,51,181,80
3240,-0.78784,-0.018311,0.59668,2,51,181,80
3260,-0.80615,-0.005859,0.5878899999999999,2,51,181,80
3280,-0.81226,0.0070799999999999,0.60278,2,51,181,80
3300,-0.7966300000000001,-0.006592,0.59131,2,51,181,80
3320,-0.7983399999999999,-0.010254,0.59375,2,51,181,80
3340,-0.8042,-0.003418,0.5896,2,51,181,80
3360,-0.80493,-0.0202639999999999,0.5827600000000001,2,51,181,80
3380,-0.80078,-0.00415,0.59668,2,51,181,80
3400,-0.8064,-0.010742,0.5957,2,51,181,80
3420,-0.79688,-0.007324,0.58862,2,51,181,80
3440,-0.8044399999999999,-0.016357,0.6001,2,51,181,80
3460,-0.80273,-0.021973,0.57593,2,51,181,80
3480,-0.79468,-0.008057,0.59302,2,51,181,80
3500,-0.8015100000000001,-0.003418,0.59277,2,51,181,80
3520,-0.79785,-0.0141599999999999,0.5852,2,51,181,80
3540,-0.80298,-0.019531,0.5783699999999999,3,38,171,61
3560,-0.81445,-0.017334,0.57715,3,38,171,61
3580,-0.80273,-0.019287,0.58643,3,38,171,61
3600,-0.8015100000000001,-0.012451,0.5852,3,38,171,61
3620,-0.7981,-0.0275879999999999,0.59863,3,38,171,61
3640,-0.7983399999999999,-0.012695,0.59253,3,38,171,61
3660,-0.81226,-0.006104,0.58935,3,38,171,61
3680,-0.8012699999999999,-0.015137,0.57568,3,38,171,61
3700,-0.80078,-0.0031739999999999,0.59106,3,38,171,61
3720,-0.79785,-0.008057,0.59302,3,38,171,61
3740,-0.79932,-0.006592,0.5874,3,38,171,61
3760,-0.80273,-0.015137,0.5844699999999999,3,38,171,61
3780,-0.80957,-0.01123,0.60742,3,38,171,61
3800,-0.802,-0.0021969999999999,0.59277,3,38,171,61
3820,-0.8015100000000001,-0.016602,0.57153,3,38,171,61
3840,-0.80078,-0.008545,0.5918,3,38,171,61
3860,-0.7998,-0.008545,0.59619,3,38,171,61
3880,-0.81201,-0.0141599999999999,0.58057,3,38,171,61
3900,-0.79761,-0.008545,0.59644,3,38,171,61
3920,-0.8103,-0.021973,0.5778800000000001,3,38,171,61
3940,-0.7998,-0.008545,0.58643,3,38,171,61
3960,-0.80371,-0.009033,0.59815,3,38,171,61
3980,-0.80835,-0.005371,0.59692,3,38,171,61
4000,-0.81079,-0.016602,0.5813,3,38,171,61
4020,-0.8044399999999999,-0.023193,0.57153,3,38,171,61
4040,-0.7959,-0.007812,0.58813,3,38,171,61
4060,-0.80225,-0.005371,0.59497,3,38,171,61
4080,-0.8012699999999999,-0.019043,0.56763,3,38,171,61
4100,-0.7971199999999999,-0.005127,0.5918,3,38,171,61
4120,-0.7973600000000001,-0.009033,0.59106,3,38,171,61
4140,-0.79614,-0.011963,0.5874,3,38,171,61
4160,-0.80493,-0.010986,0.59692,3,38,171,61
4180,-0.80493,-0.016846,0.58032,3,38,171,61
4200,-0.80176,-0.007324,0.59644,3,38,171,61
4220,-0.8085899999999999,-0.021729,0.57227,3,38,171,61
4240,-0.80273,-0.013672,0.59644,3,38,171,61
4260,-0.78809,-0.016357,0.58667,3,38,171,61
4280,-0.8042,-0.022461,0.59326,3,38,171,61
4300,-0.80566,-0.007812,0.59131,3,38,171,61
4320,-0.7971199999999999,-0.009033,0.59619,3,38,171,61
4340,-0.80542,-0.015137,0.58765,3,38,171,61
4360,-0.81152,-0.018799,0.58838,3,38,171,61
4380,-0.79761,-0.007324,0.59326,3,38,171,61
4400,-0.81323,-0.020996,0.57886,3,38,171,61
4420,-0.80029,-0.008545,0.58862,3,38,171,61
4440,-0.80493,-0.0222169999999999,0.57153,3,38,171,61
4460,-0.80737,-0.016602,0.58618,3,38,171,61
4480,-0.80176,-0.006104,0.59717,3,38,171,61
4500,-0.8042,-0.004395,0.59497,3,38,171,61
4520,-0.80518,-0.028564,0.5778800000000001,3,38,171,61
4540,-0.79883,-0.002441,0.5813,3,38,171,61
4560,-0.80029,-0.022705,0.58301,3,38,171,61
4580,-0.7954100000000001,-0.0021969999999999,0.58105,3,38,171,61
4600,-0.7959,-0.0063479999999999,0.58618,3,38,171,61
4620,-0.80566,-0.005859,0.58935,3,38,171,61
4640,-0.7998,-0.005615,0.59546,3,38,171,61
4660,-0.79785,-0.013916,0.58862,3,38,171,61
4680,-0.79175,-0.01123,0.58862,3,38,171,61
4700,-0.80542,-0.019775,0.5744600000000001,3,38,171,61
4720,-0.7998,-0.010254,0.58667,3,38,171,61
4740,-0.802,-0.008789,0.59131,3,38,171,61
4760,-0.8064,-0.023926,0.5817899999999999,3,38,171,61
4780,-0.80029,-0.010742,0.59473,3,38,171,61
4800,-0.79614,-0.005615,0.59497,3,38,171,61
4820,-0.80347,-0.01123,0.58935,3,38,171,61
4840,-0.80347,-0.007812,0.59351,3,38,171,61
4860,-0.7998,-0.011719,0.59351,3,38,171,61
4880,-0.80005,-0.009766,0.59668,3,38,171,61
4900,-0.7966300000000001,0.000977,0.58691,3,38,171,61
4920,-0.80176,-0.001465,0.5976600000000001,3,38,171,61
4940,-0.81152,-0.024658,0.57422,3,38,171,61
4960,-0.80542,-0.013916,0.5786100000000001,3,38,171,61
4980,-0.81055,-0.016602,0.5766600000000001,3,38,171,61
5000,-0.79785,-0.010742,0.59204,3,38,171,61
5020,-0.8103,-0.025635,0.58154,3,38,171,61
5040,-0.8032199999999999,-0.007324,0.58862,3,38,171,61
5060,-0.80957,-0.008301,0.58911,4,41,160,76
5080,-0.80591,-0.010498,0.6023,4,41,160,76
5100,-0.80786,-0.008301,0.58765,4,41,160,76
5120,-0.79932,-0.01123,0.5957,4,41,160,76
5140,-0.80078,-0.018555,0.58301,4,41,160,76
5160,-0.80957,-0.022705,0.58691,4,41,160,76
5180,-0.80688,-0.026855,0.58691,4,41,160,76
5200,-0.81226,-0.004395,0.60107,4,41,160,76
5220,-0.8012699999999999,-0.0063479999999999,0.58887,4,41,160,76
5240,-0.81592,-0.018311,0.58008,4,41,160,76
5260,-0.82153,0.002686,0.61841,4,41,160,76
5280,-0.8032199999999999,-0.02124,0.5664100000000001,4,41,160,76
5300,-0.80518,-0.010742,0.59692,4,41,160,76
5320,-0.81006,-0.025879,0.5852,4,41,160,76
5340,-0.78613,-0.003906,0.59473,4,41,160,76
5360,-0.80273,-0.0092769999999999,0.59351,4,41,160,76
5380,-0.81103,-0.02124,0.5852,4,41,160,76
5400,-0.80347,-0.029053,0.5791,4,41,160,76
5420,-0.8032199999999999,-0.02124,0.5664100000000001,4,41,160,76
5440,-0.80225,-0.008301,0.58935,4,41,160,76
5460,-0.80688,-0.0141599999999999,0.59082,4,41,160,76
5480,-0.79492,-0.0141599999999999,0.58105,4,41,160,76
5500,-0.8012699999999999,-0.01001,0.58813,4,41,160,76
5520,-0.802,-0.000977,0.58911,4,41,160,76
5540,-0.80835,-0.019043,0.5776399999999999,4,41,160,76
5560,-0.80029,-0.012695,0.59326,4,41,160,76
5580,-0.7954100000000001,-0.005615,0.5835,4,41,160,76
5600,-0.80078,-0.00415,0.59668,4,41,160,76
5620,-0.79932,-0.007568,0.58594,4,41,160,76
5640,-0.79028,-0.009033,0.59302,4,41,160,76
5660,-0.8032199999999999,-0.02002,0.58105,4,41,160,76
5680,-0.79932,-0.008789,0.59058,4,41,160,76
5700,-0.8081,-0.0144039999999999,0.59082,4,41,160,76
5720,-0.80176,-0.009766,0.5827600000000001,4,41,160,76
5740,-0.802,-0.0202639999999999,0.5776399999999999,4,41,160,76
5760,-0.79883,0.000732,0.59985,4,41,160,76
5780,-0.7966300000000001,-0.0092769999999999,0.58887,4,41,160,76
5800,-0.80029,-0.012695,0.59326,4,41,160,76
5820,-0.802,-0.010986,0.5837399999999999,4,41,160,76
5840,-0.82568,-0.050293,0.60278,4,41,160,76
5860,-0.81128,-0.026855,0.5791,4,41,160,76
5880,-0.80981,-0.002441,0.5976600000000001,4,41,160,76
5900,-0.80884,-0.015137,0.5896,4,41,160,76
5920,-0.8085899999999999,-0.019531,0.58398,4,41,160,76
5940,-0.8044399999999999,-0.005615,0.59228,4,41,160,76
5960,-0.81079,-0.015381,0.57813,4,41,160,76
5980,-0.7932100000000001,-0.010254,0.5852,4,41,160,76
6000,-0.80395,-0.008301,0.5957,4,41,160,76
6020,-0.80884,-0.013184,0.59009,4,41,160,76
6040,-0.8024899999999999,-0.006836,0.58813,4,41,160,76
6060,-0.8015100000000001,-0.012695,0.59082,4,41,160,76
6080,-0.80542,-0.0222169999999999,0.5813,4,41,160,76
6100,-0.79761,-0.009766,0.5896,4,41,160,76
6120,-0.8081,-0.0129389999999999,0.59741,4,41,160,76
6140,-0.7981,-0.013184,0.5957,4,41,160,76
6160,-0.80591,-0.019287,0.5725100000000001,4,41,160,76
6180,-0.79443,-0.009521,0.59009,4,41,160,76
6200,-0.8015100000000001,-0.01001,0.59473,4,41,160,76
6220,-0.79492,-0.0129389999999999,0.59985,4,41,160,76
6240,-0.7973600000000001,-0.0144039999999999,0.59253,4,41,160,76
6260,-0.79956,-0.004883,0.59204,4,41,160,76
6280,-0.80078,-0.01123,0.58691,4,41,160,76
6300,-0.80542,-0.008057,0.5874,4,41,160,76
6320,-0.80273,-0.016602,0.57398,4,41,160,76
6340,-0.81323,-0.013672,0.58813,4,41,160,76
6360,-0.7985800000000001,-0.017822,0.58105,4,41,160,76
6380,-0.80591,-0.001953,0.59595,4,41,160,76
6400,-0.79907,-0.0092769999999999,0.5798300000000001,4,41,160,76
6420,-0.80493,-0.014648,0.58227,4,41,160,76
6440,-0.7983399999999999,-0.006104,0.59253,4,41,160,76
6460,-0.80298,-0.005859,0.59399,4,41,160,76
6480,-0.8044399999999999,-0.024902,0.57568,4,41,160,76
6500,-0.7898,-0.011963,0.58691,4,41,160,76
6520,-0.79346,-0.012695,0.58935,4,41,160,76
6540,-0.79297,-0.013672,0.59424,4,41,160,76
6560,-0.8044399999999999,-0.0222169999999999,0.59058,4,41,160,76
6580,-0.8064,-0.006104,0.59546,4,41,160,76
6600,-0.8103,-0.005127,0.60132,4,41,160,76
6620,-0.7985800000000001,-0.008301,0.5976600000000001,4,41,160,76
6640,-0.79419,-0.008057,0.5918,4,41,160,76
6660,-0.8042,-0.007568,0.59253,4,41,160,76
6680,-0.802,-0.00415,0.59644,4,41,160,76
6700,-0.80005,-0.008545,0.58911,4,41,160,76
6720,-0.8024899999999999,-0.010986,0.58838,4,41,160,76
6740,-0.79932,-0.018311,0.58472,4,41,160,76
6760,-0.7971199999999999,-0.015625,0.59424,5,48,184,80
6780,-0.80542,-0.004883,0.59717,5,48,184,80
6800,-0.7963899999999999,-0.0129389999999999,0.59692,5,48,184,80
6820,-0.8024899999999999,-0.004883,0.59741,5,48,184,80
6840,-0.80005,-0.01123,0.59155,5,48,184,80
6860,-0.80835,-0.0236819999999999,0.57739,5,48,184,80
6880,-0.80469,-0.026367,0.57813,5,48,184,80
6900,-0.7983399999999999,-0.000732,0.59546,5,48,184,80
6920,-0.7912600000000001,-0.009521,0.59595,5,48,184,80
6940,-0.8012699999999999,0.006592,0.59985,5,48,184,80
6960,-0.79907,-0.005859,0.59204,5,48,184,80
6980,-0.80518,-0.0141599999999999,0.5896,5,48,184,80
7000,-0.80371,-0.006592,0.59595,5,48,184,80
7020,-0.80005,-0.010742,0.58813,5,48,184,80
7040,-0.78687,-0.026611,0.58032,5,48,184,80
7060,-0.79688,-0.010498,0.58643,5,48,184,80
7080,-0.7966300000000001,-0.008301,0.60034,5,48,184,80
7100,-0.80835,-0.0236819999999999,0.5825199999999999,5,48,184,80
7120,-0.7983399999999999,-0.007812,0.58643,5,48,184,80
7140,-0.7973600000000001,-0.01123,0.58911,5,48,184,80
7160,-0.80273,-0.011963,0.59644,5,48,184,80
7180,-0.81494,-0.007568,0.60523,5,48,184,80
7200,-0.80395,-0.006104,0.58227,5,48,184,80
7220,-0.79883,-0.010986,0.59106,5,48,184,80
7240,-0.80591,-0.019531,0.58765,5,48,184,80
7260,-0.80933,-0.015137,0.58838,5,48,184,80
7280,-0.79395,-0.011963,0.59424,5,48,184,80
7300,-0.80688,-0.013672,0.58618,5,48,184,80
7320,-0.8044399999999999,-0.015869,0.59228,5,48,184,80
7340,-0.80395,-0.020752,0.58496,5,48,184,80
7360,-0.80908,-0.017334,0.58301,5,48,184,80
7380,-0.81079,-0.022705,0.58057,5,48,184,80
7400,-0.7981,-0.006104,0.59424,5,48,184,80
7420,-0.79907,-0.012695,0.59473,5,48,184,80
7440,-0.8064,-0.0244139999999999,0.58325,5,48,184,80
7460,-0.80176,-0.004883,0.59424,5,48,184,80
7480,-0.81103,-0.0122069999999999,0.59937,5,48,184,80
7500,-0.81909,-0.017334,0.5896,5,48,184,80
7520,-0.8024899999999999,-0.014648,0.59082,5,48,184,80
7540,-0.79492,-0.017822,0.5844699999999999,5,48,184,80
7560,-0.80395,-0.015625,0.59351,5,48,184,80
7580,-0.7983399999999999,-0.006104,0.5957,5,48,184,80
7600,-0.81445,-0.018799,0.5764199999999999,5,48,184,80
7620,-0.79761,-0.003418,0.59106,5,48,184,80
7640,-0.8085899999999999,-0.008789,0.5979,5,48,184,80
7660,-0.7932100000000001,-0.022461,0.59888,5,48,184,80
7680,-0.802,-0.007568,0.5852,5,48,184,80
7700,-0.81128,-0.017578,0.58643,5,48,184,80
7720,-0.80078,-0.007812,0.59058,5,48,184,80
7740,-0.80493,-0.006592,0.59253,5,48,184,80
7760,-0.7932100000000001,-0.02417,0.55786,5,48,184,80
7780,-0.8012699999999999,-0.011719,0.60083,5,48,184,80
7800,-0.8208,-0.009766,0.59448,5,48,184,80
7820,-0.79492,-0.008301,0.59277,5,48,184,80
7840,-0.80029,-0.009521,0.5957,5,48,184,80
7860,-0.81714,-0.008057,0.60278,5,48,184,80
7880,-0.80395,-0.016113,0.57813,5,48,184,80
7900,-0.80273,-0.008301,0.59155,5,48,184,80
7920,-0.79688,-0.0021969999999999,0.59009,5,48,184,80
7940,-0.80542,-0.013184,0.59155,5,48,184,80
7960,-0.8044399999999999,-0.018799,0.57935,5,48,184,80
7980,-0.81372,-0.017578,0.57324,5,48,184,80
8000,-0.8064,-0.010254,0.58887,5,48,184,80
8020,-0.81909,-0.017822,0.5896,5,48,184,80
8040,-0.80029,-0.005127,0.59204,5,48,184,80
8060,-0.80029,-0.014648,0.58667,5,48,184,80
8080,-0.79932,-0.008789,0.59058,5,48,184,80
8100,-0.7971199999999999,-0.011475,0.59033,5,48,184,80
8120,-0.7954100000000001,-0.013916,0.59302,5,48,184,80
8140,-0.79785,-0.008789,0.5874,5,48,184,80
8160,-0.80078,-0.009521,0.59448,5,48,184,80
8180,-0.81421,-0.020752,0.58545,5,48,184,80
8200,-0.8361799999999999,-0.0144039999999999,0.6108399999999999,5,48,184,80
8220,-0.80005,-0.005615,0.58813,5,48,184,80
8240,-0.81079,-0.012451,0.58911,5,48,184,80
8260,-0.80591,-0.005859,0.59106,5,48,184,80
8280,-0.81397,-0.019287,0.5856899999999999,5,48,184,80
8300,-0.80273,0.000488,0.5898399999999999,5,48,184,80
8320,-0.80371,-0.013184,0.56958,5,48,184,80
8340,-0.80078,-0.006104,0.59351,6,47,183,50
8360,-0.79785,-0.003906,0.59351,6,47,183,50
8380,-0.8064,-0.01123,0.6049800000000001,6,47,183,50
8400,-0.80835,-0.005615,0.59082,6,47,183,50
8420,-0.81128,-0.026855,0.5791,6,47,183,50
8440,-0.79199,-0.005859,0.5798300000000001,6,47,183,50
8460,-0.7951699999999999,-0.005859,0.59644,6,47,183,50
8480,-0.80005,-0.013672,0.59058,6,47,183,50
8500,-0.8012699999999999,-0.018066,0.59497,6,47,183,50
8520,-0.80493,-0.012695,0.5817899999999999,6,47,183,50
8540,-0.80493,-0.007812,0.58862,6,47,183,50
8560,-0.79883,-0.025146,0.5786100000000001,6,47,183,50
8580,-0.79883,-0.0070799999999999,0.59595,6,47,183,50
8600,-0.8066399999999999,-0.005371,0.59131,6,47,183,50
8620,-0.80078,-0.007568,0.58716,6,47,183,50
8640,-0.80225,-0.0070799999999999,0.5918,6,47,183,50
8660,-0.80981,-0.016846,0.58496,6,47,183,50
8680,-0.80713,-0.0141599999999999,0.58667,6,47,183,50
8700,-0.81763,-0.024658,0.58057,6,47,183,50
8720,-0.7963899999999999,-0.006836,0.58398,6,47,183,50
8740,-0.8044399999999999,-0.011475,0.58862,6,47,183,50
8760,-0.7959,-0.008301,0.59009,6,47,183,50
8780,-0.7932100000000001,-0.009033,0.59009,6,47,183,50
8800,-0.80591,-0.009033,0.59326,6,47,183,50
8820,-0.79688,-0.01709,0.61475,6,47,183,50
8840,-0.80835,-0.012695,0.5898399999999999,6,47,183,50
8860,-0.80469,-0.014893,0.5783699999999999,6,47,183,50
8880,-0.80615,-0.007324,0.59277,6,47,183,50
8900,-0.8085899999999999,-0.019531,0.59424,6,47,183,50
8920,-0.80298,-0.010742,0.59253,6,47,183,50
8940,-0.79932,-0.003418,0.5844699999999999,6,47,183,50
8960,-0.80493,-0.013916,0.57544,6,47,183,50
8980,-0.79492,-0.006592,0.59106,6,47,183,50
9000,-0.8005399999999999,-0.011963,0.58911,6,47,183,50
9020,-0.8012699999999999,-0.005371,0.59228,6,47,183,50
9040,-0.8032199999999999,-0.008789,0.59204,6,47,183,50
9060,-0.80029,-0.012451,0.58301,6,47,183,50
9080,-0.8044399999999999,-0.006104,0.59009,6,47,183,50
9100,-0.80908,-0.019531,0.57593,6,47,183,50
9120,-0.81128,-0.023193,0.57422,6,47,183,50
9140,-0.81201,-0.015869,0.5783699999999999,6,47,183,50
9160,-0.8103,-0.018311,0.58398,6,47,183,50
9180,-0.7985800000000001,-0.011963,0.58813,6,47,183,50
9200,-0.78662,-0.007324,0.57324,6,47,183,50
9220,-0.81543,-0.006104,0.61182,6,47,183,50
9240,-0.80518,-0.012695,0.5852,6,47,183,50
9260,-0.79785,-0.0070799999999999,0.59058,6,47,183,50
9280,-0.79883,-0.0129389999999999,0.59253,6,47,183,50
9300,-0.80395,-0.008301,0.59644,6,47,183,50
9320,-0.8081,-0.015869,0.5837399999999999,6,47,183,50
9340,-0.80395,-0.010742,0.58203,6,47,183,50
9360,-0.80078,-0.018311,0.57935,6,47,183,50
9380,-0.80395,-0.021973,0.5744600000000001,6,47,183,50
9400,-0.80591,-0.011963,0.5878899999999999,6,47,183,50
9420,-0.7981,-0.0129389999999999,0.59424,6,47,183,50
9440,-0.80176,-0.018311,0.5844699999999999,6,47,183,50
9460,-0.7985800000000001,-0.00415,0.59375,6,47,183,50
9480,-0.8012699999999999,-0.015137,0.57568,6,47,183,50
9500,-0.81128,-0.007812,0.59863,6,47,183,50
9520,-0.79688,-0.011475,0.5918,6,47,183,50
9540,-0.79419,-0.009766,0.58862,6,47,183,50
9560,-0.80273,-0.012695,0.59424,6,47,183,50
9580,-0.8066399999999999,-0.005371,0.59131,6,47,183,50
9600,-0.80493,-0.010986,0.59253,6,47,183,50
9620,-0.80371,-0.003906,0.59033,6,47,183,50
9640,-0.7985800000000001,-0.008545,0.59131,6,47,183,50
9660,-0.8044399999999999,-0.008789,0.59106,6,47,183,50
9680,-0.79175,-0.009766,0.5874,6,47,183,50
9700,-0.802,-0.006592,0.60278,6,47,183,50
9720,-0.7985800000000001,-0.032715,0.57495,6,47,183,50
9740,-0.80542,-0.005127,0.59351,6,47,183,50
9760,-0.8005399999999999,-0.007324,0.59009,6,47,183,50
9780,-0.80273,-0.007324,0.59009,6,47,183,50
9800,-0.81177,-0.023438,0.57227,6,47,183,50
9820,-0.80005,0.0092769999999999,0.5976600000000001,6,47,183,50
9840,-0.80786,-0.0202639999999999,0.5852,6,47,183,50
9860,-0.7998,-0.01123,0.59619,6,47,183,50
9880,-0.7973600000000001,-0.004639,0.59815,6,47,183,50
9900,-0.79443,-0.013184,0.58643,6,47,183,50
9920,-0.802,-0.007324,0.59351,7,63,186,87
9940,-0.8005399999999999,-0.0222169999999999,0.58105,7,63,186,87
9960,-0.80737,-0.013672,0.5852,7,63,186,87
9980,-0.79346,-0.006104,0.59082,7,63,186,87
10000,-0.8044399999999999,-0.011719,0.59033,7,63,186,87
10020,-0.81201,-0.02124,0.58935,7,63,186,87
10040,-0.7973600000000001,-0.009521,0.59228,7,63,186,87
10060,-0.80395,-0.01001,0.6047399999999999,7,63,186,87
10080,-0.8015100000000001,-0.006592,0.59375,7,63,186,87
10100,-0.8085899999999999,-0.008789,0.5979,7,63,186,87
10120,-0.7971199999999999,-0.005127,0.5856899999999999,7,63,186,87
10140,-0.81543,-0.0202639999999999,0.5835,7,63,186,87
10160,-0.80591,-0.011963,0.5878899999999999,7,63,186,87
10180,-0.8012699999999999,-0.016113,0.58594,7,63,186,87
10200,-0.80591,-0.006592,0.58643,7,63,186,87
10220,-0.80542,-0.007324,0.59033,7,63,186,87
10240,-0.7558600000000001,-0.047363,0.55737,7,63,186,87
10260,-0.8064,-0.020752,0.5769,7,63,186,87
10280,-0.80713,-0.0021969999999999,0.58813,7,63,186,87
10300,-0.8042,-0.006592,0.59912,7,63,186,87
10320,-0.80981,-0.013184,0.58716,7,63,186,87
10340,-0.8024899999999999,-0.006836,0.59082,7,63,186,87
10360,-0.80933,-0.009033,0.59351,7,63,186,87
10380,-0.80273,-0.004395,0.59937,7,63,186,87
10400,-0.8103,-0.030762,0.59033,7,63,186,87
10420,-0.80737,-0.010498,0.59473,7,63,186,87
10440,-0.80078,-0.032471,0.57129,7,63,186,87
10460,-0.80737,-0.0244139999999999,0.57886,7,63,186,87
10480,-0.80835,-0.0236819999999999,0.57617,7,63,186,87
10500,-0.8044399999999999,-0.023193,0.58423,7,63,186,87
10520,-0.78784,-0.02417,0.5844699999999999,7,63,186,87
10540,-0.80371,-0.015137,0.58667,7,63,186,87
10560,-0.80933,-0.0271,0.57495,7,63,186,87
10580,-0.80737,-0.009521,0.59009,7,63,186,87
10600,-0.7966300000000001,0.001709,0.59839,7,63,186,87
10620,-0.8064,-0.018799,0.57202,7,63,186,87
10640,-0.79492,-0.007812,0.58887,7,63,186,87
10660,-0.80176,-0.016602,0.5918,7,63,186,87
10680,-0.80688,-0.015869,0.58057,7,63,186,87
10700,-0.7985800000000001,0.0,0.60425,7,63,186,87
10720,-0.7998,-0.010986,0.58643,7,63,186,87
10740,-0.81006,-0.008301,0.5996100000000001,7,63,186,87
10760,-0.7959,-0.009521,0.58716,7,63,186,87
10780,-0.7959,-0.0144039999999999,0.5844699999999999,7,63,186,87
10800,-0.802,-0.000732,0.5817899999999999,7,63,186,87
10820,-0.8015100000000001,-0.016602,0.57153,7,63,186,87
10840,-0.8066399999999999,-0.011963,0.59106,7,63,186,87
10860,-0.80981,-0.023438,0.58057,7,63,186,87
10880,-0.80395,-0.012451,0.58691,7,63,186,87
10900,-0.80102,-0.0063479999999999,0.59106,7,63,186,87
10920,-0.7983399999999999,-0.009033,0.58716,7,63,186,87
10940,-0.8032199999999999,-0.013916,0.58154,7,63,186,87
10960,-0.80566,-0.012695,0.59937,7,63,186,87
10980,-0.79443,-0.009766,0.58667,7,63,186,87
11000,-0.81128,-0.005127,0.59399,7,63,186,87
11020,-0.80176,-0.020752,0.5778800000000001,7,63,186,87
11040,-0.81103,-0.010254,0.58496,7,63,186,87
11060,-0.81055,-0.016113,0.59155,7,63,186,87
11080,-0.81372,-0.020752,0.59302,7,63,186,87
11100,-0.8024899999999999,-0.010986,0.58838,7,63,186,87
11120,-0.80395,-0.009521,0.57935,7,63,186,87
11140,-0.80786,-0.013428,0.59228,7,63,186,87
11160,-0.80762,-0.0092769999999999,0.59131,7,63,186,87
11180,-0.8125,-0.010742,0.57568,7,63,186,87
11200,-0.80688,-0.013428,0.57617,7,63,186,87
11220,-0.80786,-0.015137,0.58618,7,63,186,87
11240,-0.7971199999999999,-0.013184,0.58887,7,63,186,87
11260,-0.80029,-0.004639,0.59644,7,63,186,87
11280,-0.8015100000000001,-0.01123,0.59522,7,63,186,87
11300,-0.79297,-0.008545,0.5837399999999999,7,63,186,87
11320,-0.80762,-0.009766,0.59082,7,63,186,87
11340,-0.79297,-0.005615,0.59644,7,63,186,87
11360,-0.80615,-0.009033,0.59717,7,63,186,87
11380,-0.79907,-0.009766,0.59644,7,63,186,87
11400,-0.79932,-0.010986,0.58935,7,63,186,87
11420,-0.8012699999999999,-0.017334,0.5798300000000001,7,63,186,87
11440,-0.8081,-0.015869,0.5837399999999999,7,63,186,87
11460,-0.81665,-0.027344,0.5705600000000001,7,63,186,87
11480,-0.80835,-0.019775,0.6001,7,63,186,87
11500,-0.8103,-0.018066,0.58643,7,63,186,87
11520,-0.81274,-0.02417,0.57715,7,63,186,87
11540,-0.81152,-0.006836,0.59619,7,63,186,87
11560,-0.80273,-0.006104,0.59228,7,63,186,87
11580,-0.79688,-0.005371,0.59399,7,63,186,87
11600,-0.81226,-0.007324,0.5878899999999999,7,63,186,87
11620,-0.80347,-0.015625,0.60132,7,63,186,87
11640,-0.82739,0.018066,0.55395,7,63,186,87
11660,-0.7983399999999999,-0.012695,0.59253,7,63,186,87
11680,-0.80102,-0.0244139999999999,0.5813,7,63,186,87
11700,-0.8064,-0.007324,0.59424,7,63,186,87
11720,-0.80371,-0.0122069999999999,0.58057,7,63,186,87
11740,-0.79956,-0.014648,0.59204,7,63,186,87
11760,-0.80591,-0.005127,0.59741,8,23,175,57
11780,-0.79419,-0.008545,0.59058,8,23,175,57
11800,-0.80371,-0.003906,0.59033,8,23,175,57
11820,-0.80102,-0.011719,0.59131,8,23,175,57
11840,-0.81543,-0.021973,0.57471,8,23,175,57
11860,-0.79419,-0.009033,0.58227,8,23,175,57
11880,-0.8032199999999999,-0.01123,0.59326,8,23,175,57
11900,-0.80591,-0.015625,0.5734899999999999,8,23,175,57
11920,-0.79419,-0.010498,0.58862,8,23,175,57
11940,-0.80786,-0.010498,0.59717,8,23,175,57
11960,-0.80688,-0.022949,0.5752,8,23,175,57
11980,-0.80957,-0.01123,0.59985,8,23,175,57
12000,-0.8015100000000001,-0.010498,0.59448,8,23,175,57
12020,-0.79395,-0.005859,0.5852,8,23,175,57
12040,-0.80273,-0.010498,0.59228,8,23,175,57
12060,-0.80957,-0.019043,0.58838,8,23,175,57
12080,-0.80688,-0.0141599999999999,0.59082,8,23,175,57
12100,-0.7966300000000001,-0.010254,0.59717,8,23,175,57
12120,-0.8081,-0.026611,0.5766600000000001,8,23,175,57
12140,-0.80591,-0.0021969999999999,0.59522,8,23,175,57
12160,-0.8024899999999999,-0.009766,0.5835,8,23,175,57
12180,-0.80273,0.001709,0.59326,8,23,175,57
12200,-0.80933,-0.01123,0.59619,8,23,175,57
12220,-0.80835,-0.005615,0.59058,8,23,175,57
12240,-0.80786,-0.0129389999999999,0.58643,8,23,175,57
12260,-0.8044399999999999,-0.024902,0.57568,8,23,175,57
12280,-0.79565,-0.012451,0.59424,8,23,175,57
12300,-0.80273,-0.0031739999999999,0.59448,8,23,175,57
12320,-0.80884,-0.010742,0.59082,8,23,175,57
12340,-0.7937,-0.004883,0.58862,8,23,175,57
12360,-0.78394,-0.017822,0.58325,8,23,175,57
12380,-0.79443,-0.006104,0.59155,8,23,175,57
12400,-0.7973600000000001,-0.005615,0.59058,8,23,175,57
12420,-0.80176,-0.000732,0.59277,8,23,175,57
12440,-0.8085899999999999,-0.022461,0.5874,8,23,175,57
12460,-0.78687,-0.000977,0.59253,8,23,175,57
12480,-0.80469,-0.025635,0.5769,8,23,175,57
12500,-0.81763,-0.017578,0.58057,8,23,175,57
12520,-0.80615,-0.017334,0.57935,8,23,175,57
12540,-0.79028,-0.0236819999999999,0.57275,8,23,175,57
12560,-0.802,-0.01001,0.58862,8,23,175,57
12580,-0.80347,-0.0202639999999999,0.56714,8,23,175,57
12600,-0.8183600000000001,-0.0202639999999999,0.59131,8,23,175,57
12620,-0.79932,0.008301,0.58862,8,23,175,57
12640,-0.80102,-0.002441,0.58716,8,23,175,57
12660,-0.8032199999999999,-0.0063479999999999,0.59644,8,23,175,57
12680,-0.80469,-0.011719,0.5837399999999999,8,23,175,57
12700,-0.79883,-0.018066,0.58105,8,23,175,57
12720,-0.80493,-0.013672,0.5918,8,23,175,57
12740,-0.7998,-0.007568,0.5979,8,23,175,57
12760,-0.7937,-0.004883,0.58862,8,23,175,57
12780,-0.7922399999999999,-0.014648,0.59106,8,23,175,57
12800,-0.79004,-0.008789,0.58618,8,23,175,57
12820,-0.8032199999999999,-0.012451,0.5957,8,23,175,57
12840,-0.80566,-0.015381,0.59448,8,23,175,57
12860,-0.79175,0.07666,0.61987,8,23,175,57
12880,-0.8012699999999999,-0.012695,0.59668,8,23,175,57
12900,-0.8015100000000001,-0.000732,0.5976600000000001,8,23,175,57
12920,-0.8066399999999999,-0.008301,0.59497,8,23,175,57
12940,-0.79688,-0.0144039999999999,0.59106,8,23,175,57
12960,-0.79785,-0.011719,0.5835,8,23,175,57
12980,-0.7983399999999999,-0.0129389999999999,0.5856899999999999,8,23,175,57
13000,-0.79932,-0.02002,0.59375,8,23,175,57
13020,-0.80347,-0.013428,0.59473,8,23,175,57
13040,-0.80493,-0.014648,0.58227,8,23,175,57
13060,-0.79492,-0.010254,0.59131,8,23,175,57
13080,-0.8012699999999999,-0.009033,0.5976600000000001,8,23,175,57
13100,-0.80835,-0.001953,0.58887,8,23,175,57
13120,-0.8024899999999999,-0.010986,0.59668,8,23,175,57
13140,-0.80713,-0.0141599999999999,0.58667,8,23,175,57
13160,-0.80347,-0.014893,0.58545,8,23,175,57
13180,-0.80884,-0.029053,0.58032,8,23,175,57
13200,-0.79688,-0.008301,0.59815,8,23,175,57
13220,-0.79175,-0.007568,0.5898399999999999,8,23,175,57
13240,-0.80493,-0.020996,0.57105,8,23,175,57
13260,-0.80615,-0.005371,0.6037600000000001,8,23,175,57
13280,-0.79883,-0.025146,0.5786100000000001,8,23,175,57
13300,-0.80469,-0.009033,0.59131,8,23,175,57
13320,-0.80225,-0.011719,0.59253,8,23,175,57
13340,-0.7983399999999999,-0.006104,0.59253,8,23,175,57
13360,-0.8064,-0.004639,0.59351,8,23,175,57
13380,-0.81226,-0.021973,0.56958,8,23,175,57
13400,-0.80102,-0.005615,0.58496,8,23,175,57
13420,-0.802,-0.007324,0.58667,8,23,175,57
13440,-0.83472,0.0485839999999999,0.59326,8,23,175,57
13460,-0.78809,-0.018799,0.58667,8,23,175,57
13480,-0.802,-0.011963,0.59546,8,23,175,57
13500,-0.79565,-0.005615,0.59473,9,55,187,101
13520,-0.80005,-0.001709,0.58935,9,55,187,101
13540,-0.81079,-0.019531,0.5827600000000001,9,55,187,101
13560,-0.8024899999999999,-0.0070799999999999,0.59253,9,55,187,101
13580,-0.8024899999999999,-0.007812,0.59082,9,55,187,101
13600,-0.8024899999999999,-0.012451,0.59741,9,55,187,101
13620,-0.8081,-0.008057,0.59644,9,55,187,101
13640,-0.79761,-0.010986,0.5918,9,55,187,101
13660,-0.79492,-0.01123,0.57935,9,55,187,101
13680,-0.80395,-0.006592,0.59595,9,55,187,101
13700,-0.80225,-0.005615,0.58545,9,55,187,101
13720,-0.80493,-0.00415,0.59546,9,55,187,101
13740,-0.81665,-0.012695,0.5856899999999999,9,55,187,101
13760,-0.7998,-0.011719,0.59351,9,55,187,101
13780,-0.8064,-0.007324,0.5874,9,55,187,101
13800,-0.7998,-0.012451,0.58667,9,55,187,101
13820,-0.80518,-0.00415,0.59351,9,55,187,101
13840,-0.7973600000000001,-0.015381,0.59326,9,55,187,101
13860,-0.80078,-0.006836,0.59082,9,55,187,101
13880,-0.802,-0.012451,0.58496,9,55,187,101
13900,-0.79761,-0.006592,0.58765,9,55,187,101
13920,-0.81323,-0.023193,0.59058,9,55,187,101
13940,-0.79346,-0.0070799999999999,0.58765,9,55,187,101
13960,-0.80835,-0.006104,0.5979,9,55,187,101
13980,-0.7971199999999999,-0.008545,0.59033,9,55,187,101
14000,-0.80029,-0.009521,0.5957,9,55,187,101
14020,-0.80176,-0.0129389999999999,0.5837399999999999,9,55,187,101
14040,-0.80762,-0.007324,0.5996100000000001,9,55,187,101
14060,-0.80225,-0.007812,0.59644,9,55,187,101
14080,-0.81226,-0.02002,0.57105,9,55,187,101
14100,-0.80981,-0.015381,0.58765,9,55,187,101
14120,-0.7985800000000001,-0.004883,0.59033,9,55,187,101
14140,-0.79956,-0.008301,0.58643,9,55,187,101
14160,-0.80566,-0.01123,0.59253,9,55,187,101
14180,-0.80762,-0.0122069999999999,0.60278,9,55,187,101
14200,-0.79688,-0.010254,0.5878899999999999,9,55,187,101
14220,-0.79785,-0.008057,0.59302,9,55,187,101
14240,-0.81079,-0.025391,0.5795899999999999,9,55,187,101
14260,-0.8064,-0.0202639999999999,0.58716,9,55,187,101
14280,-0.7954100000000001,-0.006104,0.58472,9,55,187,101
14300,-0.7983399999999999,-0.0092769999999999,0.6049800000000001,9,55,187,101
14320,-0.79492,-0.011719,0.59277,9,55,187,101
14340,-0.81397,-0.019287,0.5856899999999999,9,55,187,101
14360,-0.79395,-0.011475,0.5835,9,55,187,101
14380,-0.8085899999999999,-0.0092769999999999,0.60645,9,55,187,101
14400,-0.80542,-0.010254,0.59522,9,55,187,101
14420,-0.81055,-0.019531,0.58667,9,55,187,101
14440,-0.80005,-0.009521,0.59131,9,55,187,101
14460,-0.80762,-0.008301,0.59155,9,55,187,101
14480,-0.79468,-0.015625,0.58154,9,55,187,101
14500,-0.79785,-0.011963,0.59058,9,55,187,101
14520,-0.80273,-0.010254,0.59033,9,55,187,101
14540,-0.80395,-0.006592,0.59595,9,55,187,101
14560,-0.8015100000000001,-0.019287,0.57935,9,55,187,101
14580,-0.7973600000000001,-0.004395,0.5918,9,55,187,101
14600,-0.80493,-0.014893,0.57202,9,55,187,101
14620,-0.8066399999999999,-0.008301,0.59497,9,55,187,101
14640,-0.8147,-0.0092769999999999,0.59375,9,55,187,101
14660,-0.79907,-0.003418,0.59131,9,55,187,101
14680,-0.80371,-0.020752,0.57813,9,55,187,101
14700,-0.7966300000000001,-0.008301,0.5918,9,55,187,101
14720,-0.81201,-0.0202639999999999,0.58154,9,55,187,101
14740,-0.7932100000000001,-0.010254,0.58765,9,55,187,101
14760,-0.79688,-0.005615,0.58887,9,55,187,101
14780,-0.8024899999999999,-0.012695,0.59692,9,55,187,101
14800,-0.8024899999999999,-0.009521,0.5898399999999999,9,55,187,101
14820,-0.79419,-0.010254,0.59155,9,55,187,101
14840,-0.75244,-0.030273,0.53467,9,55,187,101
14860,-0.78882,-0.001221,0.59228,9,55,187,101
14880,-0.80078,-0.008545,0.5918,9,55,187,101
14900,-0.81494,-0.007568,0.60523,9,55,187,101
14920,-0.79492,-0.010986,0.59009,9,55,187,101
14940,-0.80542,-0.008057,0.59741,9,55,187,101
14960,-0.7973600000000001,-0.010986,0.59839,9,55,187,101
14980,-0.80298,-0.008301,0.59497,9,55,187,101
15000,-0.7998,-0.01123,0.59497,9,55,187,101
15020,-0.80395,-0.018066,0.58862,9,55,187,101
15040,-0.80395,-0.015625,0.59351,9,55,187,101
15060,-0.7971199999999999,-0.006836,0.58691,9,55,187,101
15080,-0.7963899999999999,-0.011475,0.59009,9,55,187,101
15100,-0.80225,-0.006592,0.59839,9,55,187,101
15120,-0.79907,-0.009521,0.58765,9,55,187,101
15140,-0.7983399999999999,-0.0092769999999999,0.6049800000000001,9,55,187,101
15160,-0.80737,-0.020508,0.58716,9,55,187,101
15180,-0.7973600000000001,-0.006592,0.59033,9,55,187,101
15200,-0.79956,-0.005127,0.60059,9,55,187,101
15220,-0.80835,-0.019775,0.6001,9,55,187,101
15240,-0.80835,-0.007812,0.59888,9,55,187,101
15260,-0.80542,-0.011475,0.59888,9,55,187,101
15280,-0.80005,-0.006592,0.60107,9,55,187,101
15300,-0.80566,-0.0122069999999999,0.59644,9,55,187,101
15320,-0.79761,-0.0031739999999999,0.5764199999999999,9,55,187,101
15340,-0.80493,-0.025635,0.57715,9,55,187,101
15360,-0.80713,-0.003662,0.59204,9,55,187,101
15380,-0.80566,-0.020752,0.57715,9,55,187,101
15400,-0.80762,-0.020996,0.5852,9,55,187,101
15420,-0.79443,-0.013184,0.58643,10,23,177,75
15440,-0.80884,-0.009766,0.59522,10,23,177,75
15460,-0.7898,-0.005127,0.58472,10,23,177,75
15480,-0.80615,-0.005859,0.5856899999999999,10,23,177,75
15500,-0.79443,-0.009766,0.59863,10,23,177,75
15520,-0.80615,-0.003418,0.59937,10,23,177,75
15540,-0.79395,-0.011963,0.59424,10,23,177,75
15560,-0.81445,-0.016602,0.5844699999999999,10,23,177,75
15580,-0.79419,-0.0031739999999999,0.59473,10,23,177,75
15600,-0.8064,-0.009521,0.59033,10,23,177,75
15620,-0.81055,-0.016602,0.5766600000000001,10,23,177,75
15640,-0.79956,-0.006836,0.59326,10,23,177,75
15660,-0.8032199999999999,-0.01123,0.59741,10,23,177,75
15680,-0.8012699999999999,-0.009521,0.59741,10,23,177,75
15700,-0.80908,-0.0129389999999999,0.59009,10,23,177,75
15720,-0.81226,-0.0129389999999999,0.59522,10,23,177,75
15740,-0.8012699999999999,-0.008545,0.59155,10,23,177,75
15760,-0.7959,-0.009521,0.5957,10,23,177,75
15780,-0.7963899999999999,-0.033447,0.60669,10,23,177,75
15800,-0.79761,-0.006592,0.5918,10,23,177,75
15820,-0.80225,-0.013672,0.59522,10,23,177,75
15840,-0.80518,-0.018311,0.58154,10,23,177,75
15860,-0.7973600000000001,-0.011475,0.59106,10,23,177,75
15880,-0.80518,-0.005127,0.5856899999999999,10,23,177,75
15900,-0.80493,-0.008057,0.60083,10,23,177,75
15920,-0.81055,-0.016602,0.5766600000000001,10,23,177,75
15940,-0.81128,-0.026855,0.5791,10,23,177,75
15960,-0.79443,-0.006104,0.58691,10,23,177,75
15980,-0.81006,-0.009766,0.59131,10,23,177,75
16000,-0.80298,-0.008057,0.59473,10,23,177,75
16020,-0.7985800000000001,-0.010498,0.59619,10,23,177,75
16040,-0.8012699999999999,-0.0092769999999999,0.59351,10,23,177,75
16060,-0.8044399999999999,-0.013916,0.59692,10,23,177,75
16080,-0.80786,-0.007324,0.57935,10,23,177,75
16100,-0.7954100000000001,-0.008057,0.59277,10,23,177,75
16120,-0.8044399999999999,-0.010254,0.59424,10,23,177,75
16140,-0.78662,0.031982,0.56763,10,23,177,75
16160,-0.79761,-0.0070799999999999,0.59717,10,23,177,75
16180,-0.79395,-0.011475,0.5835,10,23,177,75
16200,-0.80005,-0.003906,0.59448,10,23,177,75
16220,-0.7983399999999999,-0.009033,0.58716,10,23,177,75
16240,-0.80762,-0.015137,0.58203,10,23,177,75
16260,-0.7973600000000001,-0.004639,0.5798300000000001,10,23,177,75
16280,-0.79102,-0.013184,0.5835,10,23,177,75
16300,-0.80102,-0.018799,0.58008,10,23,177,75
16320,-0.7951699999999999,-0.006836,0.59155,10,23,177,75
16340,-0.8042,-0.004639,0.59302,10,23,177,75
16360,-0.81006,-0.017334,0.58618,10,23,177,75
16380,-0.81445,-0.023193,0.58594,10,23,177,75
16400,-0.79761,-0.009033,0.5976600000000001,10,23,177,75
16420,-0.7998,-0.010742,0.59009,10,23,177,75
16440,-0.80835,-0.005371,0.59692,10,23,177,75
16460,-0.7973600000000001,-0.008545,0.58667,10,23,177,75
16480,-0.8042,-0.006836,0.59058,10,23,177,75
16500,-0.81079,-0.029541,0.57227,10,23,177,75
16520,-0.79883,-0.010498,0.5896,10,23,177,75
16540,-0.81055,-0.021729,0.58545,10,23,177,75
16560,-0.78955,-0.020508,0.5752,10,23,177,75
16580,-0.8081,-0.01123,0.60327,10,23,177,75
16600,-0.7983399999999999,-0.010498,0.58643,10,23,177,75
16620,-0.80542,-0.006592,0.60205,10,23,177,75
16640,-0.79883,-0.018799,0.59204,10,23,177,75
16660,-0.79346,-0.013184,0.59033,10,23,177,75
16680,-0.80395,-0.0236819999999999,0.58057,10,23,177,75
16700,-0.80005,-0.009521,0.58935,10,23,177,75
16720,-0.80762,-0.011963,0.59546,10,23,177,75
16740,-0.80591,-0.006104,0.59741,10,23,177,75
16760,-0.8024899999999999,-0.006836,0.59082,10,23,177,75
16780,-0.81567,-0.028076,0.5791,10,23,177,75
16800,-0.79932,-0.008057,0.5918,10,23,177,75
16820,-0.802,-0.006104,0.5979,10,23,177,75
16840,-0.8066399999999999,-0.008057,0.60034,10,23,177,75
16860,-0.80884,-0.017822,0.58765,10,23,177,75
16880,-0.8085899999999999,-0.018799,0.5817899999999999,10,23,177,75
16900,-0.78882,-0.008301,0.58813,10,23,177,75
16920,-0.80469,-0.0070799999999999,0.59815,11,26,169,94
16940,-0.79565,-0.009033,0.58618,11,26,169,94
16960,-0.80298,-0.016846,0.59351,11,26,169,94
16980,-0.80542,-0.005371,0.5795899999999999,11,26,169,94
17000,-0.80542,-0.007812,0.59277,11,26,169,94
17020,-0.80078,-0.010254,0.59399,11,26,169,94
17040,-0.80981,-0.011963,0.59692,11,26,169,94
17060,-0.78955,-0.007812,0.5783699999999999,11,26,169,94
17080,-0.80176,-0.0031739999999999,0.58911,11,26,169,94
17100,-0.80493,-0.0021969999999999,0.5874,11,26,169,94
17120,-0.79883,-0.007812,0.59399,11,26,169,94
17140,-0.79614,-0.010986,0.58862,11,26,169,94
17160,-0.79468,-0.010254,0.59815,11,26,169,94
17180,-0.80835,-0.039062,0.58057,11,26,169,94
17200,-0.8042,-0.001709,0.59644,11,26,169,94
17220,-0.80298,-0.019775,0.59228,11,26,169,94
17240,-0.7998,-0.002686,0.59033,11,26,169,94
17260,-0.79956,-0.010986,0.5856899999999999,11,26,169,94
17280,-0.80078,-0.010986,0.58496,11,26,169,94
17300,-0.7966300000000001,-0.015381,0.59375,11,26,169,94
17320,-0.8015100000000001,-0.003418,0.6001,11,26,169,94
17340,-0.81103,-0.0122069999999999,0.59937,11,26,169,94
17360,-0.8015100000000001,-0.016602,0.5705600000000001,11,26,169,94
17380,-0.8064,-0.018555,0.58154,11,26,169,94
17400,-0.75244,-0.030273,0.53467,11,26,169,94
17420,-0.80102,-0.00293,0.58813,11,26,169,94
17440,-0.80762,-0.003662,0.5918,11,26,169,94
17460,-0.80078,-0.004883,0.59228,11,26,169,94
17480,-0.8066399999999999,-0.015137,0.57935,11,26,169,94
17500,-0.80395,-0.001953,0.59351,11,26,169,94
17520,-0.7998,-0.002686,0.59033,11,26,169,94
17540,-0.80884,-0.013428,0.58227,11,26,169,94
17560,-0.81348,-0.023193,0.58325,11,26,169,94
17580,-0.8085899999999999,-0.023926,0.58154,11,26,169,94
17600,-0.81103,-0.0031739999999999,0.59985,11,26,169,94
17620,-0.80176,-0.004883,0.59424,11,26,169,94
17640,-0.81055,-0.009033,0.59155,11,26,169,94
17660,-0.79785,-0.005859,0.5778800000000001,11,26,169,94
17680,-0.79883,-0.007812,0.59204,11,26,169,94
17700,-0.8012699999999999,-0.01001,0.5835,11,26,169,94
17720,-0.79077,-0.0063479999999999,0.58081,11,26,169,94
17740,-0.80078,-0.0092769999999999,0.60034,11,26,169,94
17760,-0.79932,-0.018311,0.58472,11,26,169,94
17780,-0.79565,-0.010742,0.58618,11,26,169,94
17800,-0.7998,-0.007568,0.5898399999999999,11,26,169,94
17820,-0.80102,-0.000732,0.5844699999999999,11,26,169,94
17840,-0.7985800000000001,-0.011719,0.5813,11,26,169,94
17860,-0.7998,-0.004883,0.58935,11,26,169,94
17880,-0.81274,-0.026611,0.56958,11,26,169,94
17900,-0.8147,-0.02417,0.57813,11,26,169,94
17920,-0.8042,-0.005371,0.59741,11,26,169,94
17940,-0.80713,-0.0122069999999999,0.59375,11,26,169,94
17960,-0.81494,-0.007568,0.60523,11,26,169,94
17980,-0.80884,-0.019531,0.58667,11,26,169,94
18000,-0.80566,-0.019531,0.59448,11,26,169,94
18020,-0.802,-0.0063479999999999,0.58765,11,26,169,94
18040,-0.7998,-0.00415,0.59106,11,26,169,94
18060,-0.8032199999999999,-0.010986,0.59497,11,26,169,94
18080,-0.80298,-0.011719,0.59399,11,26,169,94
18100,-0.80591,-0.023926,0.58154,11,26,169,94
18120,-0.80688,-0.033447,0.59692,11,26,169,94
18140,-0.79443,-0.010254,0.5856899999999999,11,26,169,94
18160,-0.80762,-0.018066,0.58154,11,26,169,94
18180,-0.80615,-0.023193,0.57813,11,26,169,94
18200,-0.7983399999999999,-0.010498,0.58643,11,26,169,94
18220,-0.80884,-0.015137,0.59155,11,26,169,94
18240,-0.80029,-0.012695,0.5856899999999999,11,26,169,94
18260,-0.79297,-0.005859,0.59082,11,26,169,94
18280,-0.8024899999999999,-0.003418,0.59155,11,26,169,94
18300,-0.80542,-0.008057,0.59619,11,26,169,94
18320,-0.802,-0.015869,0.57739,11,26,169,94
18340,-0.8032199999999999,-0.011475,0.59473,11,26,169,94
18360,-0.8085899999999999,-0.017822,0.5737300000000001,11,26,169,94
18380,-0.80908,-0.023193,0.5737300000000001,11,26,169,94
18400,-0.80933,-0.017334,0.58545,11,26,169,94
18420,-0.80908,-0.010254,0.58545,11,26,169,94
18440,-0.80688,-0.012695,0.59302,11,26,169,94
18460,-0.81226,-0.010742,0.59106,11,26,169,94
18480,-0.80737,-0.0236819999999999,0.58765,11,26,169,94
18500,-0.7973600000000001,-0.010986,0.59839,12,64,172,75
18520,-0.80737,-0.019043,0.58081,12,64,172,75
18540,-0.81079,-0.008057,0.59692,12,64,172,75
18560,-0.81103,-0.011475,0.59326,12,64,172,75
18580,-0.7954100000000001,-0.0092769999999999,0.5844699999999999,12,64,172,75
18600,-0.8064,-0.031006,0.61279,12,64,172,75
18620,-0.802,-0.010498,0.5874,12,64,172,75
18640,-0.81323,-0.024902,0.58203,12,64,172,75
18660,-0.80347,-0.0202639999999999,0.5856899999999999,12,64,172,75
18680,-0.80298,-0.019775,0.59228,12,64,172,75
18700,-0.80737,-0.026123,0.5813,12,64,172,75
18720,-0.7963899999999999,-0.008545,0.58716,12,64,172,75
18740,-0.80005,-0.00415,0.5898399999999999,12,64,172,75
18760,-0.7893100000000001,-0.005371,0.58813,12,64,172,75
18780,-0.80981,-0.019531,0.5791,12,64,172,75
18800,-0.81226,-0.016602,0.5896,12,64,172,75
18820,-0.7922399999999999,-0.005859,0.59155,12,64,172,75
18840,-0.80518,-0.010986,0.58887,12,64,172,75
18860,-0.80102,-0.009033,0.59644,12,64,172,75
18880,-0.80542,-0.005371,0.5795899999999999,12,64,172,75
18900,-0.79492,-0.012451,0.58496,12,64,172,75
18920,-0.81494,0.01709,0.5752,12,64,172,75
18940,-0.7983399999999999,-0.003906,0.59106,12,64,172,75
18960,-0.7981,-0.004883,0.5878899999999999,12,64,172,75
18980,-0.80688,-0.0144039999999999,0.5817899999999999,12,64,172,75
19000,-0.81372,-0.017334,0.58545,12,64,172,75
19020,-0.7937,-0.004883,0.58862,12,64,172,75
19040,-0.8012699999999999,-0.008301,0.5996100000000001,12,64,172,75
19060,-0.8012699999999999,-0.020996,0.59253,12,64,172,75
19080,-0.7981,-0.0141599999999999,0.59082,12,64,172,75
19100,-0.80566,-0.0070799999999999,0.59033,12,64,172,75
19120,-0.80469,-0.012695,0.58643,12,64,172,75
19140,-0.8081,-0.010254,0.5976600000000001,12,64,172,75
19160,-0.78613,-0.029053,0.5725100000000001,12,64,172,75
19180,-0.7985800000000001,-0.010498,0.5878899999999999,12,64,172,75
19200,-0.79565,-0.007324,0.5874,12,64,172,75
19220,-0.80493,-0.008057,0.60083,12,64,172,75
19240,-0.79346,-0.001465,0.59228,12,64,172,75
19260,-0.81128,-0.017578,0.5979,12,64,172,75
19280,-0.7998,-0.00415,0.59204,12,64,172,75
19300,-0.81055,-0.021729,0.58545,12,64,172,75
19320,-0.81079,-0.008057,0.59302,12,64,172,75
19340,-0.83105,-0.032471,0.6157199999999999,12,64,172,75
19360,-0.80981,-0.000977,0.59839,12,64,172,75
19380,-0.81494,-0.0202639999999999,0.58496,12,64,172,75
19400,-0.80518,-0.018066,0.5835,12,64,172,75
19420,-0.80102,-0.008789,0.58643,12,64,172,75
19440,-0.8085899999999999,-0.024658,0.57422,12,64,172,75
19460,-0.81128,-0.021729,0.57886,12,64,172,75
19480,-0.79956,-0.003418,0.59351,12,64,172,75
19500,-0.79492,-0.008301,0.59131,12,64,172,75
19520,-0.80395,-0.010986,0.59815,12,64,172,75
19540,-0.8085899999999999,-0.008789,0.5979,12,64,172,75
19560,-0.8012699999999999,-0.005859,0.58008,12,64,172,75
19580,-0.79273,-0.008057,0.59082,12,64,172,75
19600,-0.7922399999999999,-0.011475,0.5827600000000001,12,64,172,75
19620,-0.80762,-0.020508,0.58618,12,64,172,75
19640,-0.79688,-0.009033,0.59546,12,64,172,75
19660,-0.7983399999999999,-0.013184,0.59131,12,64,172,75
19680,-0.80273,-0.016602,0.57324,12,64,172,75
19700,-0.7971199999999999,-0.019287,0.59692,12,64,172,75
19720,-0.8015100000000001,-0.01001,0.59473,12,64,172,75
19740,-0.80347,-0.015625,0.60132,12,64,172,75
19760,-0.80542,-0.015137,0.5783699999999999,12,64,172,75
19780,-0.81079,-0.019531,0.57593,12,64,172,75
19800,-0.80786,-0.02002,0.5795899999999999,12,64,172,75
19820,-0.81494,-0.016113,0.5874,12,64,172,75
19840,-0.80884,-0.025146,0.58618,12,64,172,75
19860,-0.81543,0.010986,0.6157199999999999,12,64,172,75
19880,-0.80933,-0.0271,0.57495,12,64,172,75
19900,-0.80395,-0.0063479999999999,0.59448,12,64,172,75
19920,-0.80078,-0.011719,0.5996100000000001,12,64,172,75
19940,-0.79492,-0.0063479999999999,0.58887,12,64,172,75
19960,-0.81201,-0.016357,0.58667,12,64,172,75
19980,-0.79956,-0.009521,0.59375,12,64,172,75
20000,-0.7924800000000001,-0.012451,0.58398,12,64,172,75
20020,-0.79932,-0.006592,0.59619,12,64,172,75
20040,-0.80225,-0.008301,0.5835,12,64,172,75
20060,-0.81128,-0.017578,0.58643,12,64,172,75
20080,-0.80029,-0.007324,0.5976600000000001,12,64,172,75
20100,-0.80542,-0.01123,0.59448,12,64,172,75
20120,-0.79688,-0.009033,0.58545,12,64,172,75
20140,-0.8012699999999999,-0.0092769999999999,0.58887,12,64,172,75
20160,-0.7924800000000001,-0.010498,0.57886,12,64,172,75
20180,-0.80005,-0.006104,0.58935,12,64,172,75
20200,-0.7963899999999999,-0.005859,0.59522,12,64,172,75
20220,-0.7998,-0.007812,0.58643,12,64,172,75
20240,-0.80933,-0.01123,0.59228,12,64,172,75
20260,-0.7932100000000001,-0.006592,0.59399,12,64,172,75
20280,-0.79761,0.0021969999999999,0.59302,12,64,172,75
20300,-0.7959,-0.008301,0.5898399999999999,12,64,172,75
20320,-0.78662,-0.007568,0.59106,13,43,183,104
20340,-0.8044399999999999,-0.008301,0.59522,13,43,183,104
20360,-0.80737,-0.011475,0.59717,13,43,183,104
20380,-0.7985800000000001,0.00415,0.59497,13,43,183,104
20400,-0.79932,-0.006592,0.59619,13,43,183,104
20420,-0.80298,-0.014893,0.59497,13,43,183,104
20440,-0.79907,-0.01123,0.5979,13,43,183,104
20460,-0.8081,-0.009033,0.59253,13,43,183,104
20480,-0.80298,-0.00293,0.59375,13,43,183,104
20500,-0.79688,-0.0063479999999999,0.5844699999999999,13,43,183,104
20520,-0.80298,-0.008545,0.5827600000000001,13,43,183,104
20540,-0.81128,-0.011719,0.5852,13,43,183,104
20560,-0.80591,-0.008301,0.59375,13,43,183,104
20580,-0.8024899999999999,-0.006836,0.58813,13,43,183,104
20600,-0.81079,-0.022705,0.58057,13,43,183,104
20620,-0.79932,-0.0144039999999999,0.58667,13,43,183,104
20640,-0.80762,-0.0122069999999999,0.60278,13,43,183,104
20660,-0.8024899999999999,-0.012695,0.59692,13,43,183,104
20680,-0.79883,0.000244,0.59253,13,43,183,104
20700,-0.80908,-0.024902,0.5783699999999999,13,43,183,104
20720,-0.79443,-0.009766,0.58887,13,43,183,104
20740,-0.8081,-0.016602,0.58032,13,43,183,104
20760,-0.80957,-0.009766,0.59033,13,43,183,104
20780,-0.78638,-0.016602,0.56714,13,43,183,104
20800,-0.80493,-0.01123,0.59448,13,43,183,104
20820,-0.8064,-0.0244139999999999,0.58325,13,43,183,104
20840,-0.80298,-0.00293,0.59375,13,43,183,104
20860,-0.8005399999999999,-0.016846,0.58227,13,43,183,104
20880,-0.7998,-0.011719,0.59302,13,43,183,104
20900,-0.81103,-0.010742,0.5918,13,43,183,104
20920,-0.80371,-0.012695,0.5979,13,43,183,104
20940,-0.8042,-0.009766,0.59033,13,43,183,104
20960,-0.7971199999999999,-0.005127,0.5918,13,43,183,104
20980,-0.80615,-0.001221,0.58862,13,43,183,104
21000,-0.80688,-0.00415,0.5776399999999999,13,43,183,104
21020,-0.8012699999999999,-0.008545,0.59741,13,43,183,104
21040,-0.81592,-0.021484,0.57227,13,43,183,104
21060,-0.79614,-0.008301,0.59058,13,43,183,104
21080,-0.79102,-0.01001,0.58154,13,43,183,104
21100,-0.79395,-0.0092769999999999,0.59473,13,43,183,104
21120,-0.7983399999999999,-0.02002,0.58643,13,43,183,104
21140,-0.80884,-0.016846,0.58423,13,43,183,104
21160,-0.80542,-0.003418,0.59375,13,43,183,104
21180,-0.79785,-0.0063479999999999,0.58887,13,43,183,104
21200,-0.79443,-0.008545,0.59497,13,43,183,104
21220,-0.7966300000000001,-0.0144039999999999,0.58301,13,43,183,104
21240,-0.80615,-0.005859,0.5856899999999999,13,43,183,104
21260,-0.8183600000000001,-0.009766,0.58862,13,43,183,104
21280,-0.8005399999999999,-0.014893,0.5898399999999999,13,43,183,104
21300,-0.80347,-0.009766,0.58716,13,43,183,104
21320,-0.80371,-0.007324,0.60327,13,43,183,104
21340,-0.81763,-0.023193,0.5817899999999999,13,43,183,104
21360,-0.80371,-0.009033,0.59815,13,43,183,104
21380,-0.81592,-0.021484,0.57227,13,43,183,104
21400,-0.79614,-0.010986,0.58862,13,43,183,104
21420,-0.80688,-0.005371,0.59692,13,43,183,104
21440,-0.80762,-0.0141599999999999,0.5813,13,43,183,104
21460,-0.79492,-0.006104,0.58667,13,43,183,104
21480,-0.81445,-0.021484,0.57129,13,43,183,104
21500,-0.80688,-0.006104,0.59717,13,43,183,104
21520,-0.7981,-0.006592,0.58911,13,43,183,104
21540,-0.80078,-0.007568,0.58716,13,43,183,104
21560,-0.79761,-0.011475,0.59131,13,43,183,104
21580,-0.80933,-0.022461,0.5776399999999999,13,43,183,104
21600,-0.80737,-0.010986,0.60107,13,43,183,104
21620,-0.8032199999999999,-0.007324,0.5918,13,43,183,104
21640,-0.80225,-0.0092769999999999,0.59253,13,43,183,104
21660,-0.80933,-0.013428,0.59985,13,43,183,104
21680,-0.80957,-0.025635,0.57398,13,43,183,104
21700,-0.8024899999999999,-0.013184,0.59131,13,43,183,104
21720,-0.79761,-0.001709,0.58667,13,43,183,104
21740,-0.802,-0.006592,0.5898399999999999,13,43,183,104
21760,-0.81299,-0.023926,0.5798300000000001,13,43,183,104
21780,-0.7983399999999999,-0.0063479999999999,0.5813,13,43,183,104
21800,-0.7983399999999999,-0.009766,0.59522,13,43,183,104
21820,-0.7998,-0.009033,0.5918,13,43,183,104
21840,-0.7998,-0.011963,0.5837399999999999,13,43,183,104
21860,-0.7971199999999999,-0.0092769999999999,0.58594,13,43,183,104
21880,-0.79907,-0.006592,0.58594,13,43,183,104
21900,-0.80102,-0.009521,0.59106,14,20,175,50
21920,-0.80518,-0.010254,0.59985,14,20,175,50
21940,-0.81006,-0.015869,0.58594,14,20,175,50
21960,-0.80615,-0.00293,0.58716,14,20,175,50
21980,-0.80371,-0.0063479999999999,0.60156,14,20,175,50
22000,-0.80688,-0.025391,0.58032,14,20,175,50
22020,-0.80176,-0.019287,0.5835,14,20,175,50
22040,-0.80981,-0.021973,0.5874,14,20,175,50
22060,-0.8042,-0.0141599999999999,0.5918,14,20,175,50
22080,-0.8012699999999999,-0.006104,0.59351,14,20,175,50
22100,-0.8081,-0.015869,0.5837399999999999,14,20,175,50
22120,-0.80688,-0.0202639999999999,0.5764199999999999,14,20,175,50
22140,-0.80493,-0.010498,0.59522,14,20,175,50
22160,-0.80273,-0.01001,0.59448,14,20,175,50
22180,-0.7963899999999999,-0.007812,0.59375,14,20,175,50
22200,-0.80737,-0.018066,0.5734899999999999,14,20,175,50
22220,-0.82178,-0.007568,0.59302,14,20,175,50
22240,-0.80395,-0.013672,0.59473,14,20,175,50
22260,-0.7973600000000001,-0.007568,0.59497,14,20,175,50
22280,-0.79761,-0.005371,0.58398,14,20,175,50
22300,-0.79688,-0.010742,0.5878899999999999,14,20,175,50
22320,-0.7932100000000001,-0.01001,0.58935,14,20,175,50
22340,-0.80933,-0.028076,0.57471,14,20,175,50
22360,-0.81079,-0.025391,0.5795899999999999,14,20,175,50
22380,-0.80786,-0.024902,0.58667,14,20,175,50
22400,-0.80884,-0.019043,0.59253,14,20,175,50
22420,-0.7998,-0.005371,0.58716,14,20,175,50
22440,-0.81128,-0.005615,0.59302,14,20,175,50
22460,-0.79761,-0.0092769999999999,0.59204,14,20,175,50
22480,-0.80542,-0.019775,0.5744600000000001,14,20,175,50
22500,-0.8032199999999999,-0.013428,0.58813,14,20,175,50
22520,-0.7973600000000001,-0.005615,0.59058,14,20,175,50
22540,-0.80713,-0.01123,0.58838,14,20,175,50
22560,-0.80933,-0.01001,0.5957,14,20,175,50
22580,-0.80835,-0.023193,0.5744600000000001,14,20,175,50
22600,-0.7971199999999999,0.01709,0.57495,14,20,175,50
22620,-0.79883,-0.018555,0.5783699999999999,14,20,175,50
22640,-0.802,-0.006592,0.60132,14,20,175,50
22660,-0.8012699999999999,-0.004883,0.59131,14,20,175,50
22680,-0.80102,-0.005859,0.58813,14,20,175,50
22700,-0.81738,-0.016846,0.5795899999999999,14,20,175,50
22720,-0.8125,-0.004639,0.59106,14,20,175,50
22740,-0.79688,-0.011963,0.5976600000000001,14,20,175,50
22760,-0.8024899999999999,-0.058105,0.5798300000000001,14,20,175,50
22780,-0.80737,-0.010986,0.60107,14,20,175,50
22800,-0.79199,-0.011719,0.59692,14,20,175,50
22820,-0.79565,-0.009766,0.59522,14,20,175,50
22840,-0.79785,-0.0092769999999999,0.58325,14,20,175,50
22860,-0.79419,-0.008545,0.59058,14,20,175,50
22880,-0.7985800000000001,-0.006592,0.58887,14,20,175,50
22900,-0.80688,-0.015869,0.5874,14,20,175,50
22920,-0.80176,-0.008789,0.59497,14,20,175,50
22940,-0.8042,-0.005371,0.59741,14,20,175,50
22960,-0.80298,-0.004395,0.59522,14,20,175,50
22980,-0.81323,-0.01001,0.60107,14,20,175,50
23000,-0.7971199999999999,-0.019287,0.59692,14,20,175,50
23020,-0.7951699999999999,-0.012695,0.58887,14,20,175,50
23040,-0.7973600000000001,-0.009033,0.58765,14,20,175,50
23060,-0.8044399999999999,-0.009521,0.59155,14,20,175,50
23080,-0.80713,-0.026367,0.5783699999999999,14,20,175,50
23100,-0.80566,-0.01001,0.58813,14,20,175,50
23120,-0.8012699999999999,-0.008545,0.58862,14,20,175,50
23140,-0.80176,-0.008057,0.59131,14,20,175,50
23160,-0.79443,-0.000488,0.5957,14,20,175,50
23180,-0.7998,-0.003418,0.59131,14,20,175,50
23200,-0.802,-0.017578,0.58643,14,20,175,50
23220,-0.80371,-0.020752,0.57813,14,20,175,50
23240,-0.80469,-0.025635,0.5769,14,20,175,50
23260,-0.7924800000000001,-0.01123,0.58935,14,20,175,50
23280,-0.71948,-0.036133,0.5585899999999999,14,20,175,50
23300,-0.7998,-0.012451,0.59058,14,20,175,50
23320,-0.80029,-0.008789,0.59058,14,20,175,50
23340,-0.80347,-0.01123,0.58935,14,20,175,50
23360,-0.80786,-0.009033,0.59058,14,20,175,50
23380,-0.8044399999999999,0.002441,0.59106,14,20,175,50
23400,-0.7966300000000001,-0.001221,0.5918,14,20,175,50
23420,-0.80395,-0.023193,0.57935,14,20,175,50
23440,-0.8044399999999999,-0.017578,0.58667,14,20,175,50
23460,-0.80395,-0.006592,0.58691,14,20,175,50
23480,-0.80615,-0.013672,0.58862,14,20,175,50
23500,-0.80469,-0.008057,0.58862,14,20,175,50
23520,-0.8044399999999999,-0.019775,0.58691,15,40,192,65
23540,-0.81201,-0.0202639999999999,0.58154,15,40,192,65
23560,-0.80835,-0.006104,0.60352,15,40,192,65
23580,-0.7983399999999999,0.003418,0.58716,15,40,192,65
23600,-0.7981,-0.0031739999999999,0.59985,15,40,192,65
23620,-0.81372,-0.027832,0.57935,15,40,192,65
23640,-0.82129,-0.017822,0.5957,15,40,192,65
23660,-0.79565,-0.012451,0.59058,15,40,192,65
23680,-0.78565,-0.039307,0.57471,15,40,192,65
23700,-0.8024899999999999,-0.013184,0.59619,15,40,192,65
23720,-0.7966300000000001,-0.008545,0.59522,15,40,192,65
23740,-0.81177,-0.018799,0.59277,15,40,192,65
23760,-0.80029,-0.004883,0.58667,15,40,192,65
23780,-0.802,-0.011719,0.58813,15,40,192,65
23800,-0.7973600000000001,-0.009521,0.59595,15,40,192,65
23820,-0.79614,-0.006104,0.6018100000000001,15,40,192,65
23840,-0.80713,-0.011963,0.59448,15,40,192,65
23860,-0.7959,-0.0021969999999999,0.5898399999999999,15,40,192,65
23880,-0.79614,-0.010742,0.59033,15,40,192,65
23900,-0.8024899999999999,-0.0141599999999999,0.59253,15,40,192,65
23920,-0.80029,-0.007324,0.5896,15,40,192,65
23940,-0.79102,-0.011719,0.58105,15,40,192,65
23960,-0.81079,-0.007324,0.59326,15,40,192,65
23980,-0.80469,-0.005371,0.57422,15,40,192,65
24000,-0.80347,-0.013672,0.59595,15,40,192,65
24020,-0.8103,-0.025635,0.58154,15,40,192,65
24040,-0.79346,-0.006836,0.5874,15,40,192,65
24060,-0.79346,-0.013916,0.59351,15,40,192,65
24080,-0.8012699999999999,-0.016846,0.57617,15,40,192,65
24100,-0.81079,-0.008057,0.59692,15,40,192,65
24120,-0.81226,-0.008789,0.59644,15,40,192,65
24140,-0.78565,0.034668,0.58008,15,40,192,65
24160,-0.81152,-0.012451,0.58911,15,40,192,65
24180,-0.8012699999999999,-0.010742,0.60156,15,40,192,65
24200,-0.80688,-0.00293,0.59228,15,40,192,65
24220,-0.8044399999999999,-0.014648,0.57129,15,40,192,65
24240,-0.8147,-0.021484,0.58545,15,40,192,65
24260,-0.7983399999999999,-0.010254,0.58618,15,40,192,65
24280,-0.80078,-0.00415,0.59302,15,40,192,65
24300,-0.7959,-0.009766,0.58838,15,40,192,65
24320,-0.80347,-0.01001,0.59033,15,40,192,65
24340,-0.81128,-0.023193,0.57422,15,40,192,65
24360,-0.80102,-0.019531,0.5737300000000001,15,40,192,65
24380,-0.80395,-0.010742,0.58203,15,40,192,65
24400,-0.80566,-0.02124,0.58325,15,40,192,65
24420,-0.81348,-0.003662,0.6030300000000001,15,40,192,65
24440,-0.7985800000000001,-0.0129389999999999,0.59644,15,40,192,65
24460,-0.802,-0.011963,0.59228,15,40,192,65
24480,-0.79492,-0.011719,0.59277,15,40,192,65
24500,-0.8012699999999999,-0.009766,0.59839,15,40,192,65
24520,-0.7932100000000001,-0.007812,0.5957,15,40,192,65
24540,-0.81372,-0.016113,0.5791,15,40,192,65
24560,-0.79614,-0.009033,0.58935,15,40,192,65
24580,-0.79956,-0.01123,0.59497,15,40,192,65
24600,-0.79956,-0.013672,0.59815,15,40,192,65
24620,-0.7915,-0.012451,0.58472,15,40,192,65
24640,-0.81055,-0.0236819999999999,0.56982,15,40,192,65
24660,-0.80762,-0.020508,0.58618,15,40,192,65
24680,-0.81323,-0.012451,0.59058,15,40,192,65
24700,-0.80786,-0.013428,0.59228,15,40,192,65
24720,-0.79883,-0.0092769999999999,0.59106,15,40,192,65
24740,-0.80395,-0.005127,0.58667,15,40,192,65
24760,-0.7973600000000001,-0.004639,0.5898399999999999,15,40,192,65
24780,-0.802,-0.011963,0.5957,16,55,157,84
24800,-0.80225,-0.0063479999999999,0.59253,16,55,157,84
24820,-0.80713,-0.016357,0.5791,16,55,157,84
24840,-0.81177,-0.021729,0.5752,16,55,157,84
24860,-0.80078,-0.012695,0.59375,16,55,157,84
24880,-0.8024899999999999,-0.025879,0.5786100000000001,16,55,157,84
24900,-0.80078,-0.01001,0.58643,16,55,157,84
24920,-0.802,-0.003662,0.58765,16,55,157,84
24940,-0.8024899999999999,-0.010986,0.58838,16,55,157,84
24960,-0.80078,-0.009766,0.59131,16,55,157,84
24980,-0.78955,-0.007812,0.5783699999999999,16,55,157,84
25000,-0.80102,-0.009033,0.59644,16,55,157,84
25020,-0.7981,-0.013184,0.5957,16,55,157,84
25040,-0.80591,-0.009033,0.59155,16,55,157,84
25060,-0.81372,-0.023926,0.58716,16,55,157,84
25080,-0.80176,-0.0031739999999999,0.58911,16,55,157,84
25100,-0.79175,-0.000732,0.5896,16,55,157,84
25120,-0.8066399999999999,-0.010742,0.57813,16,55,157,84
25140,-0.8398399999999999,-0.030518,0.61035,16,55,157,84
25160,-0.7966300000000001,-0.010986,0.5852,16,55,157,84
25180,-0.81152,-0.01123,0.59595,16,55,157,84
25200,-0.80029,-0.005371,0.59033,16,55,157,84
25220,-0.79932,-0.008057,0.5918,16,55,157,84
25240,-0.7954100000000001,-0.013672,0.58643,16,55,157,84
25260,-0.81128,-0.021484,0.57275,16,55,157,84
25280,-0.7959,-0.016113,0.59302,16,55,157,84
25300,-0.7959,-0.008057,0.58887,16,55,157,84
25320,-0.7971199999999999,-0.005371,0.58472,16,55,157,84
25340,-0.79785,-0.010498,0.5918,16,55,157,84
25360,-0.8042,-0.015869,0.58203,16,55,157,84
25380,-0.79297,-0.018799,0.57886,16,55,157,84
25400,-0.80542,-0.018066,0.5844699999999999,16,55,157,84
25420,-0.7981,-0.013184,0.5957,16,55,157,84
25440,-0.80493,-0.010498,0.5996100000000001,16,55,157,84
25460,-0.80298,-0.008301,0.59497,16,55,157,84
25480,-0.7924800000000001,-0.005859,0.58911,16,55,157,84
25500,-0.80005,-0.005615,0.58813,16,55,157,84
25520,-0.80469,-0.001465,0.58838,16,55,157,84
25540,-0.78784,-0.018311,0.59668,16,55,157,84
25560,-0.81177,-0.021729,0.5752,16,55,157,84
25580,-0.80835,-0.012695,0.58643,16,55,157,84
25600,-0.7981,-0.006592,0.59668,16,55,157,84
25620,-0.81323,-0.010254,0.60107,16,55,157,84
25640,-0.7954100000000001,-0.011963,0.5896,16,55,157,84
25660,-0.8064,-0.01123,0.6049800000000001,16,55,157,84
25680,-0.80518,-0.026123,0.57495,16,55,157,84
25700,-0.7963899999999999,-0.008301,0.5878899999999999,16,55,157,84
25720,-0.80542,-0.010498,0.59375,16,55,157,84
25740,-0.80078,-0.018555,0.58301,16,55,157,84
25760,-0.8103,-0.0070799999999999,0.59644,16,55,157,84
25780,-0.8005399999999999,-0.009033,0.59497,16,55,157,84
25800,-0.8042,-0.005371,0.5896,16,55,157,84
25820,-0.79492,-0.009521,0.58154,16,55,157,84
25840,-0.80298,-0.008545,0.59155,16,55,157,84
25860,-0.80078,-0.006836,0.59253,16,55,157,84
25880,-0.8012699999999999,-0.007324,0.5852,16,55,157,84
25900,-0.7924800000000001,-0.009521,0.5844699999999999,16,55,157,84
25920,-0.80493,-0.005615,0.58667,16,55,157,84
25940,-0.80102,-0.008545,0.59009,16,55,157,84
25960,-0.7971199999999999,-0.011719,0.59326,16,55,157,84
25980,-0.79395,-0.004883,0.58643,16,55,157,84
26000,-0.7922399999999999,-0.004639,0.59888,16,55,157,84
26020,-0.80786,-0.010986,0.59351,16,55,157,84
26040,-0.7998,-0.009033,0.5918,16,55,157,84
26060,-0.80737,-0.021729,0.58594,16,55,157,84
26080,-0.80469,-0.005859,0.5957,16,55,157,84
26100,-0.7983399999999999,-0.010498,0.59155,16,55,157,84
26120,-0.80273,0.001709,0.59375,16,55,157,84
26140,-0.80518,-0.007812,0.6030300000000001,16,55,157,84
26160,-0.80078,-0.009033,0.59668,16,55,157,84
26180,-0.80493,-0.019775,0.59058,16,55,157,84
26200,-0.7998,-0.005371,0.58716,16,55,157,84
26220,-0.7912600000000001,-0.004883,0.59228,16,55,157,84
26240,-0.7959,-0.006104,0.58838,16,55,157,84
26260,-0.7951699999999999,-0.011475,0.58887,16,55,157,84
26280,-0.81543,-0.005615,0.6018100000000001,16,55,157,84
26300,-0.81201,-0.017334,0.58643,16,55,157,84
26320,-0.81103,-0.034912,0.5783699999999999,16,55,157,84
26340,-0.80908,-0.004395,0.59741,16,55,157,84
26360,-0.80005,-0.010742,0.59204,16,55,157,84
26380,-0.80957,-0.004639,0.60034,16,55,157,84
26400,-0.7959,-0.005615,0.59692,16,55,157,84
26420,-0.8147,-0.020508,0.59473,16,55,157,84
26440,-0.7985800000000001,-0.01123,0.5856899999999999,16,55,157,84
26460,-0.8005399999999999,-0.006104,0.58667,16,55,157,84
26480,-0.8044399999999999,-0.016357,0.6001,16,55,157,84
26500,-0.8032199999999999,-0.0092769999999999,0.59888,16,55,157,84
26520,-0.79907,-0.01001,0.59082,16,55,157,84
26540,-0.7983399999999999,-0.007812,0.58643,16,55,157,84
26560,-0.79932,-0.0092769999999999,0.60083,16,55,157,84
26580,-0.79688,-0.0021969999999999,0.59009,17,30,178,88
26600,-0.8044399999999999,-0.012451,0.58862,17,30,178,88
26620,-0.79199,-0.006104,0.5817899999999999,17,30,178,88
26640,-0.7966300000000001,0.001709,0.59839,17,30,178,88
26660,-0.80957,-0.012695,0.59863,17,30,178,88
26680,-0.8012699999999999,-0.008545,0.59155,17,30,178,88
26700,-0.79565,-0.007568,0.59033,17,30,178,88
26720,-0.79785,-0.010742,0.59204,17,30,178,88
26740,-0.81519,-0.006592,0.59155,17,30,178,88
26760,-0.80102,-0.010742,0.58691,17,30,178,88
26780,-0.81128,-0.007812,0.59424,17,30,178,88
26800,-0.81201,-0.023926,0.57275,17,30,178,88
26820,-0.7985800000000001,-0.029785,0.58057,17,30,178,88
26840,-0.8085899999999999,-0.030518,0.59009,17,30,178,88
26860,-0.80591,-0.005371,0.59253,17,30,178,88
26880,-0.7951699999999999,-0.0063479999999999,0.58496,17,30,178,88
26900,-0.7963899999999999,-0.01123,0.59815,17,30,178,88
26920,-0.80615,-0.010254,0.59058,17,30,178,88
26940,-0.79565,-0.020752,0.58154,17,30,178,88
26960,-0.7954100000000001,-0.01001,0.5813,17,30,178,88
26980,-0.7959,-0.0021969999999999,0.5898399999999999,17,30,178,88
27000,-0.8024899999999999,-0.019531,0.57568,17,30,178,88
27020,-0.7971199999999999,0.01709,0.57495,17,30,178,88
27040,-0.80884,-0.015137,0.5896,17,30,178,88
27060,-0.7558600000000001,-0.021484,0.5422399999999999,17,30,178,88
27080,-0.79688,-0.014648,0.59155,17,30,178,88
27100,-0.7985800000000001,-0.004883,0.59033,17,30,178,88
27120,-0.80298,-0.0021969999999999,0.59351,17,30,178,88
27140,-0.80737,-0.0236819999999999,0.58301,17,30,178,88
27160,-0.8044399999999999,-0.008301,0.58643,17,30,178,88
27180,-0.8066399999999999,-0.0202639999999999,0.57886,17,30,178,88
27200,-0.81274,-0.02002,0.5825199999999999,17,30,178,88
27220,-0.7954100000000001,-0.013428,0.58643,17,30,178,88
27240,-0.8032199999999999,-0.008789,0.59351,17,30,178,88
27260,-0.80884,-0.015381,0.59522,17,30,178,88
27280,-0.79932,-0.010986,0.58935,17,30,178,88
27300,-0.80957,-0.016602,0.5813,17,30,178,88
27320,-0.80566,-0.0122069999999999,0.58081,17,30,178,88
27340,-0.81201,-0.015625,0.5852,17,30,178,88
27360,-0.80371,-0.002686,0.5844699999999999,17,30,178,88
27380,-0.80469,-0.011719,0.59424,17,30,178,88
27400,-0.7985800000000001,-0.006592,0.58911,17,30,178,88
27420,-0.76782,-0.0288089999999999,0.5515100000000001,17,30,178,88
27440,-0.81445,-0.018799,0.5764199999999999,17,30,178,88
27460,-0.79688,-0.005615,0.58813,17,30,178,88
27480,-0.80078,-0.0122069999999999,0.59546,17,30,178,88
27500,-0.80591,-0.01709,0.58716,17,30,178,88
27520,-0.79175,-0.01123,0.59058,17,30,178,88
27540,-0.7983399999999999,-0.009766,0.5852,17,30,178,88
27560,-0.80957,-0.015625,0.5827600000000001,17,30,178,88
27580,-0.8064,-0.017578,0.59473,17,30,178,88
27600,-0.80347,-0.010986,0.59375,17,30,178,88
27620,-0.80395,-0.009033,0.59399,17,30,178,88
27640,-0.80493,-0.018555,0.58325,17,30,178,88
27660,-0.79932,-0.013916,0.5878899999999999,17,30,178,88
27680,-0.81519,-0.022705,0.57886,17,30,178,88
27700,-0.81397,-0.0222169999999999,0.57544,17,30,178,88
27720,-0.79443,-0.006104,0.59155,17,30,178,88
27740,-0.7983399999999999,-0.0063479999999999,0.5813,17,30,178,88
27760,-0.7951699999999999,-0.008057,0.5896,17,30,178,88
27780,-0.7966300000000001,-0.014648,0.59595,17,30,178,88
27800,-0.80713,-0.01123,0.5996100000000001,17,30,178,88
27820,-0.7981,-0.005127,0.58667,17,30,178,88
27840,-0.79492,-0.010986,0.59009,17,30,178,88
27860,-0.80591,-0.025879,0.58154,17,30,178,88
27880,-0.7983399999999999,-0.005127,0.59106,17,30,178,88
27900,-0.79932,-0.011719,0.6001,17,30,178,88
27920,-0.80273,-0.006104,0.59228,17,30,178,88
27940,-0.80566,-0.015625,0.59302,17,30,178,88
27960,-0.79102,-0.016602,0.58105,17,30,178,88
27980,-0.81543,-0.016846,0.59302,17,30,178,88
28000,-0.80347,-0.01123,0.59692,17,30,178,88
28020,-0.80566,-0.012695,0.59937,17,30,178,88
28040,-0.80542,-0.011475,0.59888,17,30,178,88
28060,-0.80371,-0.00293,0.59522,17,30,178,88
28080,-0.7983399999999999,-0.013672,0.57935,17,30,178,88
28100,-0.81494,0.01709,0.5752,17,30,178,88
28120,-0.79956,-0.008301,0.58643,17,30,178,88
28140,-0.80591,-0.01709,0.58716,17,30,178,88
28160,-0.79297,-0.010742,0.57739,17,30,178,88
28180,-0.8085899999999999,-0.018799,0.5817899999999999,17,30,178,88
28200,-0.79492,-0.008301,0.58301,17,30,178,88
28220,-0.7971199999999999,-0.003906,0.59424,17,30,178,88
28240,-0.79614,-0.007568,0.60156,17,30,178,88
28260,-0.79761,-0.010254,0.58935,17,30,178,88
28280,-0.78296,-0.018066,0.6108399999999999,17,30,178,88
28300,-0.79419,-0.0070799999999999,0.59058,17,30,178,88
28320,-0.7954100000000001,-0.026611,0.58887,17,30,178,88
28340,-0.80493,-0.010986,0.58496,18,62,151,76
28360,-0.8005399999999999,-0.016846,0.58227,18,62,151,76
28380,-0.80981,-0.019531,0.5791,18,62,151,76
28400,-0.7985800000000001,-0.006592,0.60034,18,62,151,76
28420,-0.7985800000000001,-0.0129389999999999,0.59644,18,62,151,76
28440,-0.80713,-0.006104,0.59448,18,62,151,76
28460,-0.80029,-0.005859,0.58496,18,62,151,76
28480,-0.8064,-0.0202639999999999,0.58716,18,62,151,76
28500,-0.81006,-0.021484,0.58154,18,62,151,76
28520,-0.8005399999999999,-0.006836,0.59106,18,62,151,76
28540,-0.80469,-0.013916,0.59399,18,62,151,76
28560,-0.80542,-0.0070799999999999,0.5979,18,62,151,76
28580,-0.80371,-0.014648,0.5918,18,62,151,76
28600,-0.81714,-0.008057,0.60278,18,62,151,76
28620,-0.80518,-0.006836,0.59155,18,62,151,76
28640,-0.80469,-0.00293,0.59863,18,62,151,76
28660,-0.7912600000000001,-0.001221,0.58935,18,62,151,76
28680,-0.80493,-0.015869,0.5957,18,62,151,76
28700,-0.80225,-0.008057,0.59595,18,62,151,76
28720,-0.8005399999999999,-0.015381,0.58887,18,62,151,76
28740,-0.7951699999999999,-0.010742,0.5817899999999999,18,62,151,76
28760,-0.7959,-0.007812,0.58423,18,62,151,76
28780,-0.79883,-0.006104,0.58667,18,62,151,76
28800,-0.81397,-0.02124,0.5874,18,62,151,76
28820,-0.8064,-0.0122069999999999,0.5896,18,62,151,76
28840,-0.79883,-0.013428,0.59302,18,62,151,76
28860,-0.8044399999999999,-0.009033,0.6001,18,62,151,76
28880,-0.80737,-0.006836,0.59741,18,62,151,76
28900,-0.79956,-0.005859,0.59522,18,62,151,76
28920,-0.8064,-0.005615,0.5898399999999999,18,62,151,76
28940,-0.81616,-0.014893,0.58423,18,62,151,76
28960,-0.78442,0.021484,0.58398,18,62,151,76
28980,-0.79175,-0.01123,0.59058,18,62,151,76
29000,-0.81177,-0.026123,0.5776399999999999,18,62,151,76
29020,-0.79492,-0.012451,0.58496,18,62,151,76
29040,-0.8103,-0.005127,0.58643,18,62,151,76
29060,-0.80591,-0.007812,0.59399,18,62,151,76
29080,-0.80273,-0.010254,0.59033,18,62,151,76
29100,-0.78955,-0.009521,0.59204,18,62,151,76
29120,-0.80518,-0.019775,0.57813,18,62,151,76
29140,-0.79785,-0.013428,0.5835,18,62,151,76
29160,-0.8044399999999999,-0.012695,0.59155,18,62,151,76
29180,-0.79419,-0.010254,0.59155,18,62,151,76
29200,-0.80591,-0.005859,0.59375,18,62,151,76
29220,-0.79492,-0.0144039999999999,0.5896,18,62,151,76
29240,-0.80835,-0.0202639999999999,0.58203,18,62,151,76
29260,-0.8015100000000001,-0.011963,0.5957,18,62,151,76
29280,-0.79932,-0.002441,0.59351,18,62,151,76
29300,-0.80273,-0.007324,0.59448,18,62,151,76
29320,-0.79614,-0.008301,0.58887,18,62,151,76
29340,-0.80591,-0.009521,0.59522,18,62,151,76
29360,-0.80957,-0.002441,0.59033,18,62,151,76
29380,-0.7985800000000001,-0.003906,0.58691,18,62,151,76
29400,-0.81006,-0.01709,0.5783699999999999,18,62,151,76
29420,-0.7876,-0.006836,0.59277,18,62,151,76
29440,-0.7985800000000001,-0.008545,0.59058,18,62,151,76
29460,-0.80078,-0.008545,0.5896,18,62,151,76
29480,-0.7981,-0.007324,0.58765,18,62,151,76
29500,-0.80298,-0.005371,0.5957,18,62,151,76
29520,-0.79297,-0.013672,0.59351,18,62,151,76
29540,-0.79419,-0.013428,0.59326,18,62,151,76
29560,-0.7981,-0.003906,0.59351,18,62,151,76
29580,-0.80273,-0.011963,0.59644,18,62,151,76
29600,-0.8044399999999999,-0.015869,0.58887,18,62,151,76
29620,-0.7395,-0.008301,0.54102,18,62,151,76
29640,-0.7915,-0.009521,0.59009,18,62,151,76
29660,-0.8015100000000001,-0.019287,0.57935,18,62,151,76
29680,-0.81226,-0.015869,0.59155,18,62,151,76
29700,-0.7905300000000001,-0.010498,0.59228,18,62,151,76
29720,-0.8103,-0.01001,0.60083,18,62,151,76
29740,-0.80176,-0.017334,0.573,18,62,151,76
29760,-0.8005399999999999,-0.004639,0.59302,18,62,151,76
29780,-0.8103,-0.02417,0.5769,18,62,151,76
29800,-0.81226,-0.026855,0.58105,18,62,151,76
29820,-0.8066399999999999,-0.009521,0.59131,18,62,151,76
29840,-0.80078,0.000977,0.58838,18,62,151,76
29860,-0.7981,-0.0070799999999999,0.57935,18,62,151,76
29880,-0.7963899999999999,-0.008301,0.5878899999999999,18,62,151,76
29900,-0.80688,-0.003662,0.59375,18,62,151,76
29920,-0.80029,-0.002686,0.58545,18,62,151,76
29940,-0.80762,-0.012695,0.58081,18,62,151,76
29960,-0.79175,-0.009521,0.58911,18,62,151,76
29980,-0.79883,0.001465,0.59741,18,62,151,76
30000,-0.79932,-0.010254,0.58862,18,62,151,76
30020,-0.80469,-0.010254,0.5856899999999999,18,62,151,76
30040,-0.80225,-0.009766,0.59644,18,62,151,76
30060,-0.80786,-0.026611,0.58935,18,62,151,76
30080,-0.80395,-0.005859,0.59815,18,62,151,76
30100,-0.80176,-0.007324,0.6037600000000001,18,62,151,76
30120,-0.80981,-0.021729,0.57031,19,21,172,56
30140,-0.7973600000000001,-0.0092769999999999,0.5766600000000001,19,21,172,56
30160,-0.80835,-0.015137,0.58643,19,21,172,56
30180,-0.79907,-0.0092769999999999,0.59839,19,21,172,56
30200,-0.79419,-0.010498,0.58862,19,21,172,56
30220,-0.8125,-0.015137,0.59473,19,21,172,56
30240,-0.8064,-0.031006,0.61279,19,21,172,56
30260,-0.80981,-0.023438,0.58057,19,21,172,56
30280,-0.7985800000000001,0.0,0.60425,19,21,172,56
30300,-0.79785,-0.014893,0.5878899999999999,19,21,172,56
30320,-0.80005,-0.009033,0.6062,19,21,172,56
30340,-0.80591,-0.006104,0.59741,19,21,172,56
30360,-0.80371,-0.009033,0.58545,19,21,172,56
30380,-0.81103,-0.00415,0.59473,19,21,172,56
30400,-0.7973600000000001,-0.006592,0.5791,19,21,172,56
30420,-0.78662,-0.01123,0.58935,19,21,172,56
30440,-0.80835,-0.007324,0.59106,19,21,172,56
30460,-0.79883,-0.013184,0.58496,19,21,172,56
30480,-0.79883,-0.025146,0.5786100000000001,19,21,172,56
30500,-0.81226,-0.019775,0.5764199999999999,19,21,172,56
30520,-0.79956,-0.004883,0.5979,19,21,172,56
30540,-0.81055,-0.010986,0.58911,19,21,172,56
30560,-0.8066399999999999,-0.015869,0.59082,19,21,172,56
30580,-0.79468,-0.005859,0.58423,19,21,172,56
30600,-0.7998,-0.000244,0.59619,19,21,172,56
30620,-0.79492,-0.01001,0.58716,19,21,172,56
30640,-0.80005,-0.008301,0.59424,19,21,172,56
30660,-0.80469,-0.004639,0.6079100000000001,19,21,172,56
30680,-0.80005,-0.008057,0.58618,19,21,172,56
30700,-0.7985800000000001,-0.010986,0.5976600000000001,19,21,172,56
30720,-0.7959,-0.009766,0.58838,19,21,172,56
30740,-0.79614,-0.010986,0.58398,19,21,172,56
30760,-0.80469,-0.006592,0.59058,19,21,172,56
30780,-0.80469,-0.01001,0.5878899999999999,19,21,172,56
30800,-0.8005399999999999,-0.008057,0.5976600000000001,19,21,172,56
30820,-0.7954100000000001,-0.006592,0.58496,19,21,172,56
30840,-0.8064,-0.005127,0.59058,19,21,172,56
30860,-0.81079,-0.022705,0.58057,19,21,172,56
30880,-0.80176,-0.013672,0.59839,19,21,172,56
30900,-0.8066399999999999,-0.021973,0.59692,19,21,172,56
30920,-0.7959,-0.013916,0.58472,19,21,172,56
30940,-0.7932100000000001,-0.0141599999999999,0.58301,19,21,172,56
30960,-0.80078,-0.007812,0.60059,19,21,172,56
30980,-0.82031,-0.015869,0.6057100000000001,19,21,172,56
31000,-0.80371,-0.025635,0.5708,19,21,172,56
31020,-0.79932,-0.005615,0.58838,19,21,172,56
31040,-0.80591,-0.009033,0.5898399999999999,19,21,172,56
31060,-0.80102,-0.007324,0.59082,19,21,172,56
31080,-0.8183600000000001,-0.020508,0.5856899999999999,19,21,172,56
31100,-0.7966300000000001,-0.011475,0.59009,19,21,172,56
31120,-0.79883,-0.006104,0.58667,19,21,172,56
31140,-0.79932,0.001221,0.58643,19,21,172,56
31160,-0.80029,-0.01123,0.58032,19,21,172,56
31180,-0.81103,-0.019531,0.58105,19,21,172,56
31200,-0.80395,-0.010742,0.58203,19,21,172,56
31220,-0.7932100000000001,-0.007812,0.5957,19,21,172,56
31240,-0.8032199999999999,-0.008789,0.59351,19,21,172,56
31260,-0.8085899999999999,-0.004639,0.59228,19,21,172,56
31280,-0.82642,-0.011475,0.61157,19,21,172,56
31300,-0.7954100000000001,-0.012695,0.58887,19,21,172,56
31320,-0.8103,-0.005127,0.58643,19,21,172,56
31340,-0.7951699999999999,-0.012451,0.58472,19,21,172,56
31360,-0.79443,-0.007812,0.5898399999999999,19,21,172,56
31380,-0.80029,-0.0063479999999999,0.5835,19,21,172,56
31400,-0.7981,-0.008789,0.59497,19,21,172,56
31420,-0.79614,-0.005615,0.59204,19,21,172,56
31440,-0.80981,-0.001953,0.59082,19,21,172,56
31460,-0.80469,-0.01001,0.5878899999999999,19,21,172,56
31480,-0.80298,-0.010742,0.58813,19,21,172,56
31500,-0.7981,-0.0141599999999999,0.59082,19,21,172,56
31520,-0.79932,-0.00415,0.5844699999999999,20,41,186,66
31540,-0.81079,-0.012451,0.59009,20,41,186,66
31560,-0.8015100000000001,-0.006592,0.59375,20,41,186,66
31580,-0.7937,-0.002686,0.58667,20,41,186,66
31600,-0.7963899999999999,-0.011719,0.59375,20,41,186,66
31620,-0.79395,-0.010986,0.58691,20,41,186,66
31640,-0.7983399999999999,-0.0129389999999999,0.58691,20,41,186,66
31660,-0.80762,-0.0144039999999999,0.58691,20,41,186,66
31680,-0.8024899999999999,-0.00415,0.59522,20,41,186,66
31700,-0.80835,-0.015137,0.58643,20,41,186,66
31720,-0.7998,-0.005371,0.5856899999999999,20,41,186,66
31740,-0.7963899999999999,-0.011963,0.59106,20,41,186,66
31760,-0.80566,-0.01123,0.59082,20,41,186,66
31780,-0.80298,-0.022705,0.5813,20,41,186,66
31800,-0.7983399999999999,-0.007568,0.58935,20,41,186,66
31820,-0.81274,-0.003418,0.59399,20,41,186,66
31840,-0.79907,-0.004883,0.59131,20,41,186,66
31860,-0.7924800000000001,-0.01123,0.58935,20,41,186,66
31880,-0.7973600000000001,-0.010254,0.5827600000000001,20,41,186,66
31900,-0.7963899999999999,-0.011475,0.59009,20,41,186,66
31920,-0.79761,-0.004639,0.59497,20,41,186,66
31940,-0.7998,-0.01123,0.59863,20,41,186,66
31960,-0.80078,-0.023438,0.5825199999999999,20,41,186,66
31980,-0.8005399999999999,-0.008545,0.59375,20,41,186,66
32000,-0.8032199999999999,-0.006104,0.59326,20,41,186,66
32020,-0.8147,-0.018311,0.5776399999999999,20,41,186,66
32040,-0.80493,-0.014648,0.59277,20,41,186,66
32060,-0.7981,-0.005371,0.59326,20,41,186,66
32080,-0.8064,-0.018555,0.58154,20,41,186,66
32100,-0.80469,-0.007568,0.5898399999999999,20,41,186,66
32120,-0.80298,-0.011963,0.58032,20,41,186,66
32140,-0.80347,-0.010986,0.59375,20,41,186,66
32160,-0.8015100000000001,-0.009033,0.59228,20,41,186,66
32180,-0.7983399999999999,-0.009766,0.59522,20,41,186,66
32200,-0.7924800000000001,-0.009766,0.59058,20,41,186,66
32220,-0.80493,-0.01123,0.59448,20,41,186,66
32240,-0.8032199999999999,-0.007812,0.59033,20,41,186,66
32260,-0.80566,-0.017578,0.5837399999999999,20,41,186,66
32280,-0.80566,-0.0070799999999999,0.59033,20,41,186,66
32300,-0.8081,-0.017334,0.59863,20,41,186,66
32320,-0.8064,-0.007324,0.5874,20,41,186,66
32340,-0.80395,-0.009521,0.59497,20,41,186,66
32360,-0.79883,-0.012451,0.5896,20,41,186,66
32380,-0.8012699999999999,-0.012451,0.60034,20,41,186,66
32400,-0.8042,-0.011963,0.59228,20,41,186,66
32420,-0.80029,-0.003906,0.59448,20,41,186,66
32440,-0.79565,-0.009521,0.59326,20,41,186,66
32460,-0.8024899999999999,-0.009766,0.59497,20,41,186,66
32480,-0.7981,-0.008789,0.58838,20,41,186,66
32500,-0.802,-0.011475,0.58813,20,41,186,66
32520,-0.7983399999999999,-0.010254,0.59326,20,41,186,66
32540,-0.7951699999999999,-0.0144039999999999,0.59228,20,41,186,66
32560,-0.80078,-0.005859,0.5835,20,41,186,66
32580,-0.80591,-0.005127,0.59741,20,41,186,66
32600,-0.79468,-0.004639,0.59351,20,41,186,66
32620,-0.7905300000000001,-0.018555,0.59106,20,41,186,66
32640,-0.81519,-0.017334,0.5918,20,41,186,66
32660,-0.8032199999999999,-0.009766,0.58691,20,41,186,66
32680,-0.802,-0.01001,0.58862,20,41,186,66
32700,-0.80933,-0.012451,0.59912,20,41,186,66
32720,-0.80884,-0.006104,0.59228,20,41,186,66
32740,-0.71899,-0.0446779999999999,0.54004,20,41,186,66
32760,-0.7937,-0.009521,0.59277,20,41,186,66
32780,-0.80615,-0.001221,0.58862,20,41,186,66
32800,-0.7983399999999999,-0.000732,0.59546,20,41,186,66
32820,-0.81909,-0.017822,0.5896,20,41,186,66
32840,-0.7966300000000001,-0.006836,0.58935,20,41,186,66
32860,-0.7983399999999999,-0.021484,0.58472,20,41,186,66
32880,-0.7983399999999999,-0.010498,0.58643,20,41,186,66
32900,-0.79492,-0.011719,0.58472,20,41,186,66
32920,-0.80102,-0.006836,0.6084,20,41,186,66
32940,-0.79443,-0.007812,0.5898399999999999,20,41,186,66
32960,-0.80835,-0.018066,0.58203,20,41,186,66
32980,-0.81103,-0.01123,0.58862,20,41,186,66
33000,-0.7983399999999999,-0.006592,0.59497,20,41,186,66
33020,-0.8103,-0.0236819999999999,0.58008,20,41,186,66
33040,-0.79346,-0.003418,0.58765,20,41,186,66
33060,-0.7983399999999999,-0.009521,0.59497,20,41,186,66
33080,-0.80542,-0.0031739999999999,0.60107,20,41,186,66
33100,-0.8147,-0.026855,0.5769,20,41,186,66
33120,-0.80786,-0.010986,0.59351,20,41,186,66
33140,-0.81103,-0.018555,0.57324,20,41,186,66
33160,-0.81812,-0.0021969999999999,0.59863,20,41,186,66
33180,-0.81079,-0.0031739999999999,0.60693,20,41,186,66
33200,-0.80176,-0.008545,0.5896,20,41,186,66
33220,-0.7998,-0.021729,0.5769,20,41,186,66
33240,-0.80835,-0.014893,0.58887,20,41,186,66
33260,-0.79492,-0.017822,0.5844699999999999,21,53,156,74
33280,-0.79785,-0.009521,0.5898399999999999,21,53,156,74
33300,-0.8186,-0.023926,0.57617,21,53,156,74
33320,-0.81421,-0.021973,0.5708,21,53,156,74
33340,-0.7932100000000001,-0.007812,0.5957,21,53,156,74
33360,-0.80981,-0.020752,0.5817899999999999,21,53,156,74
33380,-0.80542,-0.015137,0.58765,21,53,156,74
33400,-0.8032199999999999,-0.015381,0.57105,21,53,156,74
33420,-0.80518,-0.028564,0.5778800000000001,21,53,156,74
33440,-0.80688,-0.019287,0.5817899999999999,21,53,156,74
33460,-0.80542,-0.0144039999999999,0.5878899999999999,21,53,156,74
33480,-0.8064,-0.020996,0.59155,21,53,156,74
33500,-0.80005,-0.009521,0.5896,21,53,156,74
33520,-0.80176,-0.006104,0.59741,21,53,156,74
33540,-0.80102,-0.005371,0.59399,21,53,156,74
33560,-0.80225,-0.01123,0.58472,21,53,156,74
33580,-0.802,-0.002441,0.59253,21,53,156,74
33600,-0.8066399999999999,-0.010742,0.59155,21,53,156,74
33620,-0.8015100000000001,-0.008789,0.58838,21,53,156,74
33640,-0.80176,-0.008789,0.5896,21,53,156,74
33660,-0.80884,-0.0129389999999999,0.5844699999999999,21,53,156,74
33680,-0.79956,-0.007812,0.59082,21,53,156,74
33700,-0.81055,0.02124,0.5776399999999999,21,53,156,74
33720,-0.80884,-0.017578,0.57422,21,53,156,74
33740,-0.81128,-0.019287,0.57153,21,53,156,74
33760,-0.7998,0.000977,0.59741,21,53,156,74
33780,-0.79492,-0.006592,0.58643,21,53,156,74
33800,-0.80542,-0.01123,0.59448,21,53,156,74
33820,-0.8044399999999999,-0.006836,0.59497,21,53,156,74
33840,-0.80469,-0.026367,0.57813,21,53,156,74
33860,-0.80566,-0.007568,0.59839,21,53,156,74
33880,-0.79419,-0.010254,0.58838,21,53,156,74
33900,-0.8005399999999999,-0.007324,0.59863,21,53,156,74
33920,-0.8012699999999999,-0.005615,0.59375,21,53,156,74
33940,-0.81006,-0.025879,0.5852,21,53,156,74
33960,-0.7985800000000001,-0.005859,0.59717,21,53,156,74
33980,-0.7932100000000001,-0.011963,0.5918,21,53,156,74
34000,-0.80395,-0.010742,0.58838,21,53,156,74
34020,-0.7966300000000001,-0.009521,0.5878899999999999,21,53,156,74
34040,-0.7963899999999999,-0.012451,0.5874,21,53,156,74
34060,-0.80298,-0.014893,0.59497,21,53,156,74
34080,-0.7998,-0.01001,0.5918,21,53,156,74
34100,-0.79932,-0.0144039999999999,0.58618,21,53,156,74
34120,-0.8015100000000001,-0.012451,0.5852,21,53,156,74
34140,-0.80591,-0.005371,0.59253,21,53,156,74
34160,-0.8032199999999999,-0.012451,0.5957,21,53,156,74
34180,-0.7981,-0.004883,0.59253,21,53,156,74
34200,-0.7998,-0.008057,0.58862,21,53,156,74
34220,-0.80395,-0.013916,0.5837399999999999,21,53,156,74
34240,-0.7959,-0.008301,0.5878899999999999,21,53,156,74
34260,-0.81055,-0.004395,0.59839,21,53,156,74
34280,-0.79907,-0.01001,0.58594,21,53,156,74
34300,-0.8066399999999999,-0.0271,0.5835,21,53,156,74
34320,-0.80957,-0.0063479999999999,0.58765,21,53,156,74
34340,-0.79175,-0.009766,0.5878899999999999,21,53,156,74
34360,-0.80395,-0.026611,0.5764199999999999,21,53,156,74
34380,-0.79443,-0.003418,0.5852,21,53,156,74
34400,-0.802,-0.003906,0.59863,21,53,156,74
34420,-0.80005,-0.006592,0.60107,21,53,156,74
34440,-0.80737,0.000244,0.59937,21,53,156,74
34460,-0.79883,-0.0070799999999999,0.59326,21,53,156,74
34480,-0.79785,-0.010742,0.59546,21,53,156,74
34500,-0.79761,-0.010254,0.58935,21,53,156,74
34520,-0.8044399999999999,-0.016357,0.6001,21,53,156,74
34540,-0.81055,-0.004639,0.59546,21,53,156,74
34560,-0.80542,-0.003418,0.59375,21,53,156,74
34580,-0.80737,-0.013184,0.58472,21,53,156,74
34600,-0.7981,-0.005127,0.58618,21,53,156,74
34620,-0.8081,-0.017334,0.59863,21,53,156,74
34640,-0.79297,-0.001709,0.59155,21,53,156,74
34660,-0.8015100000000001,-0.016602,0.57153,21,53,156,74
34680,-0.80273,-0.01123,0.58545,21,53,156,74
34700,-0.7973600000000001,-0.010254,0.59448,21,53,156,74
34720,-0.79907,-0.006592,0.58594,21,53,156,74
34740,-0.79883,-0.005371,0.59985,21,53,156,74
34760,-0.81299,-0.0288089999999999,0.57715,21,53,156,74
34780,-0.80493,-0.00415,0.59546,21,53,156,74
34800,-0.80176,-0.018311,0.5844699999999999,21,53,156,74
34820,-0.80957,-0.007568,0.60083,21,53,156,74
34840,-0.81665,-0.023926,0.58203,21,53,156,74
34860,-0.8032199999999999,-0.009033,0.59497,22,46,190,80
34880,-0.81177,-0.0063479999999999,0.59937,22,46,190,80
34900,-0.81934,-0.023193,0.58618,22,46,190,80
34920,-0.80566,-0.001953,0.6037600000000001,22,46,190,80
34940,-0.7998,-0.005127,0.58227,22,46,190,80
34960,-0.80493,-0.023926,0.57568,22,46,190,80
34980,-0.80176,-0.006592,0.59082,22,46,190,80
35000,-0.79614,0.000488,0.58496,22,46,190,80
35020,-0.8005399999999999,-0.0122069999999999,0.59228,22,46,190,80
35040,-0.74805,0.000488,0.5524899999999999,22,46,190,80
35060,-0.81079,-0.025391,0.5795899999999999,22,46,190,80
35080,-0.79688,-0.011963,0.59448,22,46,190,80
35100,-0.8066399999999999,-0.00293,0.59448,22,46,190,80
35120,-0.79932,-0.008301,0.59058,22,46,190,80
35140,-0.7727,-0.020508,0.5603,22,46,190,80
35160,-0.78735,-0.008301,0.5827600000000001,22,46,190,80
35180,-0.80029,-0.01123,0.59277,22,46,190,80
35200,-0.8015100000000001,-0.015381,0.57813,22,46,190,80
35220,-0.79688,-0.011475,0.5918,22,46,190,80
35240,-0.79907,-0.016846,0.59448,22,46,190,80
35260,-0.80591,-0.005859,0.59106,22,46,190,80
35280,-0.80176,-0.013672,0.59839,22,46,190,80
35300,-0.80029,-0.008057,0.58081,22,46,190,80
35320,-0.7951699999999999,-0.006836,0.58643,22,46,190,80
35340,-0.81299,-0.02124,0.59351,22,46,190,80
35360,-0.8032199999999999,-0.006104,0.59326,22,46,190,80
35380,-0.80395,-0.021729,0.58496,22,46,190,80
35400,-0.80933,-0.023193,0.57324,22,46,190,80
35420,-0.80078,-0.004639,0.58643,22,46,190,80
35440,-0.79443,-0.009033,0.59155,22,46,190,80
35460,-0.802,-0.006104,0.5979,22,46,190,80
35480,-0.80225,-0.0063479999999999,0.58618,22,46,190,80
35500,-0.7954100000000001,-0.015137,0.5817899999999999,22,46,190,80
35520,-0.79395,-0.011963,0.59424,22,46,190,80
35540,-0.80029,-0.005859,0.59277,22,46,190,80
35560,-0.79297,-0.007568,0.59082,22,46,190,80
35580,-0.7998,-0.004395,0.5896,22,46,190,80
35600,-0.8103,-0.011963,0.58691,22,46,190,80
35620,-0.79028,-0.007324,0.58765,22,46,190,80
35640,-0.79443,-0.006104,0.58691,22,46,190,80
35660,-0.8186,-0.0283199999999999,0.5725100000000001,22,46,190,80
35680,-0.8198200000000001,-0.009033,0.5878899999999999,22,46,190,80
35700,-0.7998,-0.005371,0.58716,22,46,190,80
35720,-0.81274,-0.016113,0.58716,22,46,190,80
35740,-0.80298,-0.022705,0.5813,22,46,190,80
35760,-0.8208,-0.009766,0.59448,22,46,190,80
35780,-0.80395,-0.006104,0.59351,22,46,190,80
35800,-0.78809,-0.018799,0.58667,22,46,190,80
35820,-0.802,-0.0063479999999999,0.58765,22,46,190,80
35840,-0.8042,-0.016357,0.5896,22,46,190,80
35860,-0.8042,-0.011719,0.58911,22,46,190,80
35880,-0.80395,-0.005859,0.5896,22,46,190,80
35900,-0.80078,-0.01123,0.58691,22,46,190,80
35920,-0.79761,0.0021969999999999,0.59302,22,46,190,80
35940,-0.79932,-0.007812,0.59351,22,46,190,80
35960,-0.8024899999999999,-0.007812,0.59302,22,46,190,80
35980,-0.80102,-0.020752,0.58105,22,46,190,80
36000,-0.8147,-0.026855,0.5769,22,46,190,80
36020,-0.80566,-0.017822,0.5957,22,46,190,80
36040,-0.80688,-0.019287,0.58057,22,46,190,80
36060,-0.79468,-0.0070799999999999,0.5898399999999999,22,46,190,80
36080,-0.8024899999999999,-0.006104,0.59473,22,46,190,80
36100,-0.8042,-0.008789,0.59839,22,46,190,80
36120,-0.7983399999999999,-0.021484,0.58472,22,46,190,80
36140,-0.80542,-0.007568,0.59448,22,46,190,80
36160,-0.80078,-0.011475,0.59253,22,46,190,80
36180,-0.80298,-0.005127,0.59033,22,46,190,80
36200,-0.7966300000000001,-0.015381,0.59009,22,46,190,80
36220,-0.7954100000000001,-0.013428,0.58643,22,46,190,80
36240,-0.7985800000000001,-0.001953,0.59619,22,46,190,80
36260,-0.79956,-0.004639,0.58398,22,46,190,80
36280,-0.80225,-0.020996,0.5835,22,46,190,80
36300,-0.8042,-0.011963,0.59228,22,46,190,80
36320,-0.7954100000000001,-0.008545,0.59839,22,46,190,80
36340,-0.8012699999999999,-0.008301,0.5996100000000001,22,46,190,80
36360,-0.79297,-0.012695,0.5783699999999999,22,46,190,80
36380,-0.80566,-0.011475,0.59155,22,46,190,80
36400,-0.81006,-0.009766,0.59131,22,46,190,80
36420,-0.80566,-0.008057,0.59302,22,46,190,80
36440,-0.79883,-0.008301,0.59155,22,46,190,80
36460,-0.79785,-0.011963,0.5874,22,46,190,80
36480,-0.79443,-0.009033,0.5844699999999999,22,46,190,80
36500,-0.79688,-0.022949,0.58203,22,46,190,80
36520,-0.79395,-0.006104,0.59375,22,46,190,80
36540,-0.7981,-0.02002,0.59204,22,46,190,80
36560,-0.8044399999999999,-0.009033,0.58887,22,46,190,80
36580,-0.80737,-0.012695,0.58154,22,46,190,80
36600,-0.80566,-0.009766,0.60254,23,37,194,105
36620,-0.8064,-0.013916,0.58496,23,37,194,105
36640,-0.8081,-0.017334,0.59863,23,37,194,105
36660,-0.80469,-0.012451,0.5791,23,37,194,105
36680,-0.81006,-0.025146,0.58545,23,37,194,105
36700,-0.78418,-0.0144039999999999,0.6079100000000001,23,37,194,105
36720,-0.79785,-0.0063479999999999,0.58887,23,37,194,105
36740,-0.8024899999999999,-0.007812,0.59082,23,37,194,105
36760,-0.79883,-0.010498,0.59033,23,37,194,105
36780,-0.8044399999999999,-0.012695,0.58643,23,37,194,105
36800,-0.81226,-0.0129389999999999,0.59522,23,37,194,105
36820,-0.80469,-0.030273,0.58227,23,37,194,105
36840,-0.78247,-0.0144039999999999,0.58227,23,37,194,105
36860,-0.80884,-0.014648,0.58643,23,37,194,105
36880,-0.8147,-0.021484,0.58545,23,37,194,105
36900,-0.80005,-0.010742,0.58813,23,37,194,105
36920,-0.802,-0.006592,0.58691,23,37,194,105
36940,-0.8005399999999999,-0.006592,0.58887,23,37,194,105
36960,-0.79395,-0.005859,0.5852,23,37,194,105
36980,-0.81079,-0.004883,0.59448,23,37,194,105
37000,-0.81494,-0.019043,0.5874,23,37,194,105
37020,-0.79468,-0.008057,0.58643,23,37,194,105
37040,-0.78906,-0.006104,0.58716,23,37,194,105
37060,-0.8081,-0.009766,0.5817899999999999,23,37,194,105
37080,-0.802,-0.005615,0.5896,23,37,194,105
37100,-0.7966300000000001,-0.009521,0.59595,23,37,194,105
37120,-0.81421,-0.007812,0.59058,23,37,194,105
37140,-0.80298,-0.008301,0.60254,23,37,194,105
37160,-0.7983399999999999,-0.012451,0.59131,23,37,194,105
37180,-0.80542,-0.016113,0.57568,23,37,194,105
37200,-0.7959,-0.008301,0.59009,23,37,194,105
37220,-0.80615,-0.008545,0.5957,23,37,194,105
37240,-0.81567,-0.0244139999999999,0.58643,23,37,194,105
37260,-0.80298,-0.016602,0.58887,23,37,194,105
37280,-0.80566,-0.019531,0.59448,23,37,194,105
37300,-0.81323,-0.010254,0.60107,23,37,194,105
37320,-0.7924800000000001,-0.0070799999999999,0.59717,23,37,194,105
37340,-0.80029,-0.010986,0.59619,23,37,194,105
37360,-0.7998,-0.012451,0.59155,23,37,194,105
37380,-0.8012699999999999,-0.011963,0.59717,23,37,194,105
37400,-0.80786,-0.02002,0.5795899999999999,23,37,194,105
37420,-0.80835,-0.022949,0.5795899999999999,23,37,194,105
37440,-0.8044399999999999,-0.005371,0.58935,23,37,194,105
37460,-0.8012699999999999,-0.008545,0.59155,23,37,194,105
37480,-0.79932,-0.008057,0.5918,23,37,194,105
37500,-0.80542,-0.010498,0.59375,23,37,194,105
37520,-0.79761,-0.010254,0.58911,23,37,194,105
37540,-0.80835,-0.004883,0.58618,23,37,194,105
37560,-0.8024899999999999,-0.013184,0.59131,23,37,194,105
37580,-0.80713,-0.003906,0.59888,23,37,194,105
37600,-0.79932,-0.010498,0.58227,23,37,194,105
37620,-0.7966300000000001,-0.012451,0.58423,23,37,194,105
37640,-0.80542,-0.021484,0.5837399999999999,23,37,194,105
37660,-0.79883,-0.000732,0.59985,23,37,194,105
37680,-0.8015100000000001,-0.0021969999999999,0.59448,23,37,194,105
37700,-0.80493,-0.005615,0.60132,23,37,194,105
37720,-0.80542,-0.023438,0.57422,23,37,194,105
37740,-0.80176,-0.011475,0.59106,23,37,194,105
37760,-0.80273,-0.010498,0.59228,23,37,194,105
37780,-0.79932,-0.008057,0.5918,23,37,194,105
37800,-0.79932,-0.010498,0.58765,23,37,194,105
37820,-0.80566,-0.006592,0.59839,23,37,194,105
37840,-0.80469,-0.01001,0.60254,23,37,194,105
37860,-0.7966300000000001,-0.010986,0.5852,23,37,194,105
37880,-0.7951699999999999,-0.005615,0.58667,23,37,194,105
37900,-0.80737,-0.006104,0.60547,23,37,194,105
37920,-0.80713,-0.0144039999999999,0.58545,23,37,194,105
37940,-0.80737,-0.001953,0.5874,23,37,194,105
37960,-0.80493,-0.012695,0.5817899999999999,23,37,194,105
37980,-0.802,-0.006836,0.58594,23,37,194,105
38000,-0.79883,-0.015137,0.5898399999999999,23,37,194,105
38020,-0.78906,-0.013184,0.58911,23,37,194,105
38040,-0.8125,-0.026367,0.57739,23,37,194,105
38060,-0.81567,-0.017334,0.58667,23,37,194,105
38080,-0.80347,-0.0129389999999999,0.5996100000000001,23,37,194,105
38100,-0.80884,-0.007812,0.5795899999999999,23,37,194,105
38120,-0.80981,-0.008057,0.59741,23,37,194,105
38140,-0.7922399999999999,-0.009033,0.59692,23,37,194,105
38160,-0.79932,-0.00415,0.59497,23,37,194,105
38180,-0.8012699999999999,-0.015137,0.57568,24,58,169,53
38200,-0.81397,-0.019287,0.5856899999999999,24,58,169,53
38220,-0.80933,-0.012695,0.58105,24,58,169,53
38240,-0.79395,-0.015625,0.58765,24,58,169,53
38260,-0.81055,-0.013428,0.58887,24,58,169,53
38280,-0.80102,-0.009521,0.59106,24,58,169,53
38300,-0.7951699999999999,-0.006836,0.58643,24,58,169,53
38320,-0.8005399999999999,-0.006592,0.58887,24,58,169,53
38340,-0.80371,-0.011963,0.59912,24,58,169,53
38360,-0.8042,-0.011475,0.5957,24,58,169,53
38380,-0.7998,-0.0092769999999999,0.59228,24,58,169,53
38400,-0.79004,-0.008789,0.58618,24,58,169,53
38420,-0.7985800000000001,-0.004639,0.58813,24,58,169,53
38440,-0.79565,-0.005615,0.59473,24,58,169,53
38460,-0.80981,-0.029785,0.58423,24,58,169,53
38480,-0.79443,-0.006592,0.59497,24,58,169,53
38500,-0.81128,-0.024658,0.5813,24,58,169,53
38520,-0.81323,-0.019287,0.58227,24,58,169,53
38540,-0.80176,-0.00293,0.60205,24,58,169,53
38560,-0.80493,-0.007812,0.5878899999999999,24,58,169,53
38580,-0.8066399999999999,-0.02002,0.5844699999999999,24,58,169,53
38600,-0.79932,-0.006592,0.58838,24,58,169,53
38620,-0.80029,0.000488,0.59741,24,58,169,53
38640,-0.8042,-0.007568,0.59253,24,58,169,53
38660,-0.80176,-0.010742,0.58838,24,58,169,53
38680,-0.79492,-0.011719,0.59277,24,58,169,53
38700,-0.80078,-0.0129389999999999,0.59204,24,58,169,53
38720,-0.80273,-0.010254,0.604,24,58,169,53
38740,-0.7973600000000001,-0.007324,0.59619,24,58,169,53
38760,-0.79492,-0.010254,0.59131,24,58,169,53
38780,-0.79297,-0.018799,0.57886,24,58,169,53
38800,-0.80347,-0.008545,0.59351,24,58,169,53
38820,-0.81372,-0.0021969999999999,0.59228,24,58,169,53
38840,-0.80078,-0.012695,0.58691,24,58,169,53
38860,-0.80225,-0.005859,0.59522,24,58,169,53
38880,-0.80078,-0.003662,0.5996100000000001,24,58,169,53
38900,-0.8103,-0.01001,0.60083,24,58,169,53
38920,-0.80615,-0.005371,0.6037600000000001,24,58,169,53
38940,-0.8064,-0.021729,0.58398,24,58,169,53
38960,-0.80493,-0.012451,0.59863,24,58,169,53
38980,-0.79956,-0.008301,0.58691,24,58,169,53
39000,-0.7963899999999999,-0.014893,0.57105,24,58,169,53
39020,-0.8015100000000001,-0.005859,0.5979,24,58,169,53
39040,-0.80542,-0.022705,0.5764199999999999,24,58,169,53
39060,-0.7932100000000001,-0.0141599999999999,0.58301,24,58,169,53
39080,-0.8024899999999999,-0.009766,0.5918,24,58,169,53
39100,-0.7981,-0.009521,0.59424,24,58,169,53
39120,-0.80176,-0.007812,0.59619,24,58,169,53
39140,-0.80737,-0.005615,0.59937,24,58,169,53
39160,-0.80273,-0.010254,0.59033,24,58,169,53
39180,-0.81079,-0.0031739999999999,0.60693,24,58,169,53
39200,-0.79297,-0.001709,0.59155,24,58,169,53
39220,-0.8147,-0.021484,0.57617,24,58,169,53
39240,-0.8147,-0.02417,0.57813,24,58,169,53
39260,-0.80835,-0.006592,0.5898399999999999,24,58,169,53
39280,-0.80835,-0.039062,0.58057,24,58,169,53
39300,-0.81103,-0.013672,0.59082,24,58,169,53
39320,-0.80884,-0.015625,0.57495,24,58,169,53
39340,-0.79932,-0.013916,0.5835,24,58,169,53
39360,-0.80298,-0.01123,0.59204,24,58,169,53
39380,-0.80542,-0.023926,0.58154,24,58,169,53
39400,-0.80273,-0.01001,0.59448,24,58,169,53
39420,-0.80225,-0.00415,0.58643,24,58,169,53
39440,-0.80566,-0.0070799999999999,0.59155,24,58,169,53
39460,-0.80347,-0.019531,0.58813,24,58,169,53
39480,-0.80908,-0.0070799999999999,0.58618,24,58,169,53
39500,-0.80273,0.000488,0.5898399999999999,24,58,169,53
39520,-0.8015100000000001,-0.001709,0.5874,24,58,169,53
39540,-0.81006,-0.017334,0.58618,25,52,157,51
39560,-0.81226,-0.006104,0.58935,25,52,157,51
39580,-0.8024899999999999,-0.006836,0.59448,25,52,157,51
39600,-0.81763,-0.017578,0.58057,25,52,157,51
39620,-0.79883,-0.025146,0.5786100000000001,25,52,157,51
39640,-0.81226,-0.005371,0.60327,25,52,157,51
39660,-0.81128,-0.005127,0.60132,25,52,157,51
39680,-0.7966300000000001,-0.008545,0.58862,25,52,157,51
39700,-0.8005399999999999,-0.009766,0.59448,25,52,157,51
39720,-0.7924800000000001,-0.009033,0.58496,25,52,157,51
39740,-0.79785,-0.013428,0.5835,25,52,157,51
39760,-0.81397,-0.0222169999999999,0.57544,25,52,157,51
39780,-0.7985800000000001,-0.008545,0.5896,25,52,157,51
39800,-0.7898,-0.006592,0.57593,25,52,157,51
39820,-0.81055,-0.011719,0.6049800000000001,25,52,157,51
39840,-0.79346,-0.010498,0.5896,25,52,157,51
39860,-0.79907,-0.010742,0.60278,25,52,157,51
39880,-0.80102,-0.005127,0.5957,25,52,157,51
39900,-0.80078,-0.007568,0.58887,25,52,157,51
39920,-0.8024899999999999,-0.0141599999999999,0.59253,25,52,157,51
39940,-0.80615,-0.020508,0.58057,25,52,157,51
39960,-0.81372,-0.021729,0.58081,25,52,157,51
39980,-0.81372,-0.028564,0.58545,25,52,157,51
40000,-0.79468,-0.02002,0.57813,25,52,157,51
40020,-0.79956,-0.015137,0.58398,25,52,157,51
40040,-0.7973600000000001,-0.0031739999999999,0.58862,25,52,157,51
40060,-0.7983399999999999,-0.009521,0.59277,25,52,157,51
40080,-0.79907,-0.003418,0.59131,25,52,157,51
40100,-0.7985800000000001,-0.014893,0.58472,25,52,157,51
40120,-0.79688,-0.020752,0.5766600000000001,25,52,157,51
40140,-0.80102,-0.005615,0.59399,25,52,157,51
40160,-0.81274,-0.020508,0.58716,25,52,157,51
40180,-0.8081,-0.0222169999999999,0.5827600000000001,25,52,157,51
40200,-0.80029,-0.008301,0.58911,25,52,157,51
40220,-0.80102,-0.009033,0.59644,25,52,157,51
40240,-0.80395,-0.012451,0.58691,25,52,157,51
40260,-0.8064,-0.010742,0.59473,25,52,157,51
40280,-0.80908,-0.022949,0.57715,25,52,157,51
40300,-0.8005399999999999,-0.009521,0.5957,25,52,157,51
40320,-0.80884,-0.010254,0.58887,25,52,157,51
40340,-0.81201,-0.0244139999999999,0.5825199999999999,25,52,157,51
40360,-0.8042,-0.020752,0.5795899999999999,25,52,157,51
40380,-0.8042,-0.007812,0.5898399999999999,25,52,157,51
40400,-0.80493,-0.011719,0.59253,25,52,157,51
40420,-0.8032199999999999,-0.012451,0.59546,25,52,157,51
40440,-0.802,-0.009033,0.5791,25,52,157,51
40460,-0.7951699999999999,-0.013672,0.58594,25,52,157,51
40480,-0.81103,-0.00415,0.59473,25,52,157,51
40500,-0.8064,-0.004395,0.5979,25,52,157,51
40520,-0.81103,-0.0222169999999999,0.5827600000000001,25,52,157,51
40540,-0.8044399999999999,-0.010986,0.58545,25,52,157,51
40560,-0.79932,-0.011475,0.58643,25,52,157,51
40580,-0.79199,-0.007324,0.59277,25,52,157,51
40600,-0.81299,-0.0031739999999999,0.59497,25,52,157,51
40620,-0.8066399999999999,-0.015137,0.5734899999999999,25,52,157,51
40640,-0.80542,-0.007324,0.59033,25,52,157,51
40660,-0.80933,-0.007324,0.59204,25,52,157,51
40680,-0.8198200000000001,-0.009033,0.5878899999999999,25,52,157,51
40700,-0.81299,-0.0031739999999999,0.59497,25,52,157,51
40720,-0.7971199999999999,-0.006104,0.5979,25,52,157,51
40740,-0.7983399999999999,-0.010254,0.58618,25,52,157,51
40760,-0.80591,-0.010498,0.6023,25,52,157,51
40780,-0.80225,-0.011719,0.59033,25,52,157,51
40800,-0.8044399999999999,-0.006104,0.59375,25,52,157,51
40820,-0.7954100000000001,-0.008301,0.59375,25,52,157,51
40840,-0.81909,-0.016602,0.58325,25,52,157,51
40860,-0.80176,-0.008057,0.59131,25,52,157,51
40880,-0.80395,-0.004395,0.59839,25,52,157,51
40900,-0.79077,-0.007568,0.59302,25,52,157,51
40920,-0.80957,-0.008057,0.60156,25,52,157,51
40940,-0.81079,-0.015869,0.58716,25,52,157,51
40960,-0.79297,-0.007568,0.5852,25,52,157,51
40980,-0.80347,-0.011963,0.5837399999999999,25,52,157,51
41000,-0.8042,-0.022461,0.57813,25,52,157,51
41020,-0.79688,-0.005615,0.5852,25,52,157,51
41040,-0.8125,-0.00415,0.59424,25,52,157,51
41060,-0.80029,-0.008301,0.58887,25,52,157,51
41080,-0.81103,-0.018799,0.58545,25,52,157,51
41100,-0.80298,-0.002441,0.59058,25,52,157,51
41120,-0.7983399999999999,-0.004883,0.59522,25,52,157,51
41140,-0.81177,-0.019775,0.59155,26,53,177,88
41160,-0.80347,-0.0202639999999999,0.5825199999999999,26,53,177,88
41180,-0.8042,-0.009521,0.59448,26,53,177,88
41200,-0.81128,-0.007812,0.59863,26,53,177,88
41220,-0.81055,-0.008789,0.59253,26,53,177,88
41240,-0.80078,-0.018311,0.57935,26,53,177,88
41260,-0.8005399999999999,-0.008301,0.5827600000000001,26,53,177,88
41280,-0.80395,-0.008057,0.59522,26,53,177,88
41300,-0.79907,-0.009033,0.59082,26,53,177,88
41320,-0.81909,-0.0144039999999999,0.59009,26,53,177,88
41340,-0.80395,-0.007568,0.58813,26,53,177,88
41360,-0.79468,-0.010498,0.5852,26,53,177,88
41380,-0.79395,-0.0092769999999999,0.58643,26,53,177,88
41400,-0.80518,-0.012451,0.59155,26,53,177,88
41420,-0.81128,-0.021484,0.57275,26,53,177,88
41440,-0.81714,0.01001,0.62964,26,53,177,88
41460,-0.80005,-0.005371,0.59155,26,53,177,88
41480,-0.79395,-0.01001,0.59937,26,53,177,88
41500,-0.79443,-0.009033,0.5844699999999999,26,53,177,88
41520,-0.79932,-0.010254,0.58911,26,53,177,88
41540,-0.8064,-0.018555,0.58227,26,53,177,88
41560,-0.7983399999999999,-0.0129389999999999,0.58691,26,53,177,88
41580,-0.80762,-0.0144039999999999,0.58691,26,53,177,88
41600,-0.79614,-0.01709,0.58765,26,53,177,88
41620,-0.7966300000000001,-0.015381,0.59375,26,53,177,88
41640,-0.80786,-0.007324,0.57935,26,53,177,88
41660,-0.81421,-0.007812,0.59058,26,53,177,88
41680,-0.8066399999999999,-0.004395,0.59399,26,53,177,88
41700,-0.80493,-0.005371,0.6030300000000001,26,53,177,88
41720,-0.79395,-0.008301,0.59082,26,53,177,88
41740,-0.78882,-0.008301,0.58813,26,53,177,88
41760,-0.80176,-0.008301,0.59253,26,53,177,88
41780,-0.81348,-0.023926,0.5786100000000001,26,53,177,88
41800,-0.80395,-0.008789,0.59448,26,53,177,88
41820,-0.81055,-0.016357,0.5817899999999999,26,53,177,88
41840,-0.81567,-0.016357,0.5752,26,53,177,88
41860,-0.80005,-0.007568,0.58691,26,53,177,88
41880,-0.7912600000000001,-0.009033,0.59888,26,53,177,88
41900,-0.80273,-0.008301,0.58887,26,53,177,88
41920,-0.80298,-0.009033,0.5874,26,53,177,88
41940,-0.79688,-0.006104,0.59424,26,53,177,88
41960,-0.79761,-0.0092769999999999,0.59204,26,53,177,88
41980,-0.7983399999999999,-0.007324,0.5835,26,53,177,88
42000,-0.81519,-0.028076,0.5776399999999999,26,53,177,88
42020,-0.79614,-0.009521,0.58496,26,53,177,88
42040,-0.80029,-0.007568,0.59228,26,53,177,88
42060,-0.823,-0.015869,0.5896,26,53,177,88
42080,-0.79785,-0.005859,0.5778800000000001,26,53,177,88
42100,-0.80005,-0.010986,0.5825199999999999,26,53,177,88
42120,-0.80176,-0.019287,0.5835,26,53,177,88
42140,-0.78345,-0.1228,0.80737,26,53,177,88
42160,-0.8044399999999999,-0.008057,0.58911,26,53,177,88
42180,-0.8005399999999999,-0.006592,0.5957,26,53,177,88
42200,-0.80835,-0.019775,0.58545,26,53,177,88
42220,-0.80933,-0.028076,0.57471,26,53,177,88
42240,-0.8042,-0.015869,0.58203,26,53,177,88
42260,-0.8044399999999999,-0.013428,0.58813,26,53,177,88
42280,-0.80762,-0.016113,0.5852,26,53,177,88
42300,-0.7954100000000001,-0.01123,0.58423,26,53,177,88
42320,-0.79932,-0.010986,0.58691,26,53,177,88
42340,-0.8012699999999999,-0.012695,0.59668,26,53,177,88
42360,-0.80908,0.002441,0.5898399999999999,26,53,177,88
42380,-0.81812,-0.027344,0.57739,26,53,177,88
42400,-0.802,-0.003906,0.59863,26,53,177,88
42420,-0.79956,-0.007812,0.5896,26,53,177,88
42440,-0.7998,-0.004639,0.59619,26,53,177,88
42460,-0.80078,-0.00415,0.59668,26,53,177,88
42480,-0.80493,-0.010742,0.58887,26,53,177,88
42500,-0.80688,-0.00293,0.59228,26,53,177,88
42520,-0.7959,-0.013184,0.58862,26,53,177,88
42540,-0.79883,-0.013184,0.58325,26,53,177,88
42560,-0.8015100000000001,0.008301,0.6137699999999999,26,53,177,88
42580,-0.80273,-0.01001,0.59448,26,53,177,88
42600,-0.7981,-0.003906,0.59351,26,53,177,88
42620,-0.79907,-0.007812,0.5835,26,53,177,88
42640,-0.7973600000000001,-0.019043,0.57275,26,53,177,88
42660,-0.8015100000000001,-0.0021969999999999,0.59448,26,53,177,88
42680,-0.79346,-0.006592,0.58643,26,53,177,88
42700,-0.80713,-0.010742,0.59033,26,53,177,88
42720,-0.80762,-0.015137,0.5778800000000001,26,53,177,88
42740,-0.80029,-0.012451,0.59595,26,53,177,88
42760,-0.79492,-0.001953,0.59009,26,53,177,88
42780,-0.80298,-0.01001,0.59375,26,53,177,88
42800,-0.8005399999999999,-0.003418,0.59717,26,53,177,88
42820,-0.79004,-0.008545,0.58667,26,53,177,88
42840,-0.80493,-0.029297,0.5852,27,34,184,83
42860,-0.81152,-0.017578,0.58008,27,34,184,83
42880,-0.81421,-0.007812,0.59058,27,34,184,83
42900,-0.79785,-0.005371,0.59424,27,34,184,83
42920,-0.80029,-0.01123,0.59888,27,34,184,83
42940,-0.79956,-0.010742,0.57935,27,34,184,83
42960,-0.7963899999999999,-0.021973,0.57495,27,34,184,83
42980,-0.8066399999999999,-0.013184,0.59155,27,34,184,83
43000,-0.7954100000000001,-0.0063479999999999,0.5896,27,34,184,83
43020,-0.80493,-0.006836,0.59619,27,34,184,83
43040,-0.80078,-0.007568,0.59253,27,34,184,83
43060,-0.80908,-0.0070799999999999,0.58618,27,34,184,83
43080,-0.7981,-0.008545,0.58691,27,34,184,83
43100,-0.79761,-0.010986,0.5856899999999999,27,34,184,83
43120,-0.80371,-0.009521,0.58496,27,34,184,83
43140,-0.80713,-0.026367,0.5783699999999999,27,34,184,83
43160,-0.79028,0.001709,0.59668,27,34,184,83
43180,-0.7985800000000001,-0.005127,0.59082,27,34,184,83
43200,-0.8032199999999999,-0.010742,0.5878899999999999,27,34,184,83
43220,-0.79443,-0.009521,0.59009,27,34,184,83
43240,-0.81055,-0.020996,0.5776399999999999,27,34,184,83
43260,-0.79956,-0.010986,0.5856899999999999,27,34,184,83
43280,-0.80005,-0.011475,0.59155,27,34,184,83
43300,-0.79419,-0.013428,0.59326,27,34,184,83
43320,-0.8085899999999999,-0.01123,0.5976600000000001,27,34,184,83
43340,-0.80371,-0.0092769999999999,0.57617,27,34,184,83
43360,-0.7959,-0.010498,0.59522,27,34,184,83
43380,-0.7973600000000001,0.000732,0.59131,27,34,184,83
43400,-0.79956,-0.011963,0.59302,27,34,184,83
43420,-0.802,-0.019043,0.59668,27,34,184,83
43440,-0.80566,-0.006592,0.59741,27,34,184,83
43460,-0.8042,-0.001709,0.59644,27,34,184,83
43480,-0.79883,-0.00415,0.5874,27,34,184,83
43500,-0.7959,-0.009766,0.58008,27,34,184,83
43520,-0.80176,-0.009033,0.59546,27,34,184,83
43540,-0.8012699999999999,-0.019043,0.56763,27,34,184,83
43560,-0.80957,-0.007568,0.60083,27,34,184,83
43580,-0.79565,-0.006592,0.58667,27,34,184,83
43600,-0.8012699999999999,-0.012695,0.59668,27,34,184,83
43620,-0.79419,-0.0122069999999999,0.58765,27,34,184,83
43640,-0.80493,0.003418,0.58643,27,34,184,83
43660,-0.8183600000000001,-0.0202639999999999,0.59131,27,34,184,83
43680,-0.79419,-0.005615,0.58545,27,34,184,83
43700,-0.80005,-0.02124,0.57544,27,34,184,83
43720,-0.8044399999999999,-0.006836,0.60205,27,34,184,83
43740,-0.7924800000000001,-0.010498,0.57886,27,34,184,83
43760,-0.81226,-0.005371,0.60327,27,34,184,83
43780,-0.79932,-0.008301,0.59058,27,34,184,83
43800,-0.80078,-0.010742,0.59741,27,34,184,83
43820,-0.80981,-0.013672,0.5918,27,34,184,83
43840,-0.79565,-0.01001,0.5957,27,34,184,83
43860,-0.80566,-0.01001,0.58813,27,34,184,83
43880,-0.81128,-0.007812,0.59424,27,34,184,83
43900,-0.8015100000000001,-0.005615,0.59863,27,34,184,83
43920,-0.79565,-0.0070799999999999,0.59228,27,34,184,83
43940,-0.7983399999999999,-0.021484,0.58472,27,34,184,83
43960,-0.80078,-0.007568,0.59253,27,34,184,83
43980,-0.8064,-0.013184,0.59033,27,34,184,83
44000,-0.7981,-0.010254,0.59668,27,34,184,83
44020,-0.8032199999999999,-0.017822,0.58472,27,34,184,83
44040,-0.74536,0.032227,0.52905,27,34,184,83
44060,-0.8015100000000001,-0.01709,0.57324,27,34,184,83
44080,-0.81397,-0.021484,0.57202,27,34,184,83
44100,-0.79883,-0.007812,0.59399,27,34,184,83
44120,-0.79761,-0.006104,0.58887,27,34,184,83
44140,-0.80029,-0.014648,0.58667,27,34,184,83
44160,-0.7973600000000001,-0.008545,0.5827600000000001,27,34,184,83
44180,-0.81885,-0.026611,0.5764199999999999,27,34,184,83
44200,-0.79102,-0.016602,0.58105,27,34,184,83
44220,-0.79614,-0.010254,0.5898399999999999,27,34,184,83
44240,-0.7959,-0.011475,0.59253,27,34,184,83
44260,-0.79419,-0.015869,0.59106,27,34,184,83
44280,-0.78687,-0.0244139999999999,0.58227,27,34,184,83
44300,-0.7981,-0.018311,0.58105,27,34,184,83
44320,-0.80102,-0.005615,0.59399,27,34,184,83
44340,-0.8085899999999999,-0.019043,0.56909,27,34,184,83
44360,-0.7954100000000001,-0.008545,0.59839,27,34,184,83
44380,-0.79785,-0.0063479999999999,0.58887,27,34,184,83
44400,-0.80737,-0.008057,0.60156,27,34,184,83
44420,-0.80371,-0.008301,0.60034,27,34,184,83
44440,-0.7981,-0.008301,0.59033,27,34,184,83
44460,-0.79614,-0.0070799999999999,0.59595,27,34,184,83
44480,-0.80005,-0.008789,0.57935,27,34,184,83
44500,-0.81055,-0.003418,0.58691,27,34,184,83
44520,-0.81299,-0.024902,0.57715,27,34,184,83
44540,-0.8064,-0.012451,0.5835,27,34,184,83
44560,-0.81152,-0.016602,0.59058,27,34,184,83
44580,-0.7959,-0.006104,0.5813,27,34,184,83
44600,-0.80688,-0.012695,0.59302,27,34,184,83
44620,-0.79956,-0.008789,0.59131,28,47,178,83
44640,-0.80835,-0.010742,0.59058,28,47,178,83
44660,-0.7973600000000001,-0.006836,0.59522,28,47,178,83
44680,-0.80395,-0.004395,0.59839,28,47,178,83
44700,-0.81372,-0.0236819999999999,0.5791,28,47,178,83
44720,-0.7971199999999999,0.001709,0.59399,28,47,178,83
44740,-0.80493,-0.004395,0.5898399999999999,28,47,178,83
44760,-0.79614,-0.0070799999999999,0.58545,28,47,178,83
44780,-0.80591,-0.01001,0.60059,28,47,178,83
44800,-0.81421,-0.021973,0.5708,28,47,178,83
44820,-0.802,-0.000977,0.59155,28,47,178,83
44840,-0.79785,-0.005859,0.59424,28,47,178,83
44860,-0.7985800000000001,-0.00415,0.58545,28,47,178,83
44880,-0.80395,-0.021729,0.58496,28,47,178,83
44900,-0.79883,-0.0092769999999999,0.59106,28,47,178,83
44920,-0.80542,-0.015137,0.58765,28,47,178,83
44940,-0.802,-0.011719,0.58813,28,47,178,83
44960,-0.80347,-0.0063479999999999,0.59351,28,47,178,83
44980,-0.8186,-0.023926,0.57617,28,47,178,83
45000,-0.80225,-0.010742,0.59106,28,47,178,83
45020,-0.80542,-0.005615,0.58862,28,47,178,83
45040,-0.8005399999999999,-0.004639,0.58887,28,47,178,83
45060,-0.802,-0.010986,0.58667,28,47,178,83
45080,-0.7998,-0.0070799999999999,0.58838,28,47,178,83
45100,-0.80713,-0.019043,0.57398,28,47,178,83
45120,-0.80029,-0.0063479999999999,0.5856899999999999,28,47,178,83
45140,-0.81103,-0.026611,0.5752,28,47,178,83
45160,-0.80493,-0.025635,0.57715,28,47,178,83
45180,-0.7973600000000001,-0.011475,0.59106,28,47,178,83
45200,-0.80395,-0.003662,0.5874,28,47,178,83
45220,-0.80542,-0.0236819999999999,0.58081,28,47,178,83
45240,-0.80762,-0.0122069999999999,0.60278,28,47,178,83
45260,-0.80005,-0.006104,0.58935,28,47,178,83
45280,-0.79883,-0.011719,0.5874,28,47,178,83
45300,-0.80884,-0.013184,0.59009,28,47,178,83
45320,-0.79785,-0.001709,0.58496,28,47,178,83
45340,-0.8012699999999999,-0.005859,0.58643,28,47,178,83
45360,-0.80395,-0.009766,0.59424,28,47,178,83
45380,-0.79443,-0.009766,0.58667,28,47,178,83
45400,-0.80395,-0.026855,0.5778800000000001,28,47,178,83
45420,-0.79688,-0.014893,0.5957,28,47,178,83
45440,-0.7971199999999999,-0.005615,0.58496,28,47,178,83
45460,-0.79492,-0.01123,0.5979,28,47,178,83
45480,-0.78906,-0.008789,0.5766600000000001,28,47,178,83
45500,-0.79761,-0.007568,0.5827600000000001,28,47,178,83
45520,-0.71948,-0.036133,0.5585899999999999,28,47,178,83
45540,-0.81348,-0.01001,0.5898399999999999,28,47,178,83
45560,-0.8012699999999999,-0.009033,0.60132,28,47,178,83
45580,-0.8103,-0.015381,0.5813,28,47,178,83
45600,-0.80298,-0.008301,0.59228,28,47,178,83
45620,-0.79688,-0.015869,0.57568,28,47,178,83
45640,-0.80762,-0.008057,0.59888,28,47,178,83
45660,-0.79785,-0.005371,0.59277,28,47,178,83
45680,-0.83154,-0.0070799999999999,0.5825199999999999,28,47,178,83
45700,-0.7912600000000001,-0.009033,0.59888,28,47,178,83
45720,-0.81055,-0.0092769999999999,0.59522,28,47,178,83
45740,-0.80835,-0.012695,0.5898399999999999,28,47,178,83
45760,-0.79273,-0.005859,0.59131,28,47,178,83
45780,-0.80884,-0.017822,0.58765,28,47,178,83
45800,-0.80493,-0.015869,0.5957,28,47,178,83
45820,-0.80029,-0.008789,0.59058,28,47,178,83
45840,-0.80005,-0.005371,0.59058,28,47,178,83
45860,-0.8044399999999999,-0.000488,0.6001,28,47,178,83
45880,-0.80542,-0.008301,0.59644,28,47,178,83
45900,-0.80371,-0.005859,0.59692,28,47,178,83
45920,-0.80225,-0.003662,0.58838,28,47,178,83
45940,-0.80615,-0.007812,0.6018100000000001,28,47,178,83
45960,-0.81274,-0.013672,0.6018100000000001,28,47,178,83
45980,-0.802,-0.010498,0.5874,28,47,178,83
46000,-0.80298,-0.014893,0.59497,28,47,178,83
46020,-0.79468,-0.001221,0.58496,28,47,178,83
46040,-0.79907,-0.01123,0.5979,28,47,178,83
46060,-0.7981,-0.016113,0.59155,28,47,178,83
46080,-0.80615,-0.015869,0.5898399999999999,28,47,178,83
46100,-0.80005,-0.003662,0.59351,28,47,178,83
46120,-0.79443,-0.008545,0.59033,28,47,178,83
46140,-0.80957,-0.004639,0.60034,28,47,178,83
46160,-0.8024899999999999,-0.012451,0.59741,29,51,152,87
46180,-0.79883,-0.005127,0.59424,29,51,152,87
46200,-0.80493,-0.02124,0.5766600000000001,29,51,152,87
46220,-0.8044399999999999,-0.012451,0.57031,29,51,152,87
46240,-0.7973600000000001,-0.010254,0.5827600000000001,29,51,152,87
46260,-0.79395,-0.007568,0.59473,29,51,152,87
46280,-0.802,-0.0063479999999999,0.58765,29,51,152,87
46300,-0.7998,-0.01123,0.59619,29,51,152,87
46320,-0.79956,-0.009033,0.59277,29,51,152,87
46340,-0.80347,-0.020752,0.5764199999999999,29,51,152,87
46360,-0.7973600000000001,-0.007568,0.59228,29,51,152,87
46380,-0.802,-0.011963,0.5957,29,51,152,87
46400,-0.79468,-0.01001,0.59204,29,51,152,87
46420,-0.74683,0.0021969999999999,0.5498,29,51,152,87
46440,-0.80298,-0.008301,0.59228,29,51,152,87
46460,-0.7973600000000001,-0.003662,0.59302,29,51,152,87
46480,-0.81152,-0.016602,0.5786100000000001,29,51,152,87
46500,-0.80469,-0.009521,0.58227,29,51,152,87
46520,-0.80469,-0.007812,0.59351,29,51,152,87
46540,-0.8005399999999999,-0.0070799999999999,0.58716,29,51,152,87
46560,-0.8081,-0.010986,0.5852,29,51,152,87
46580,-0.8103,-0.005127,0.58643,29,51,152,87
46600,-0.81226,-0.007324,0.5878899999999999,29,51,152,87
46620,-0.80469,-0.030273,0.58227,29,51,152,87
46640,-0.80395,-0.008545,0.58423,29,51,152,87
46660,-0.8064,-0.009033,0.5979,29,51,152,87
46680,-0.80176,-0.009033,0.59619,29,51,152,87
46700,-0.79395,-0.008545,0.59497,29,51,152,87
46720,-0.79297,-0.006836,0.5898399999999999,29,51,152,87
46740,-0.80518,-0.02417,0.56738,29,51,152,87
46760,-0.79785,-0.011963,0.5844699999999999,29,51,152,87
46780,-0.79199,-0.01001,0.58301,29,51,152,87
46800,-0.8015100000000001,-0.003418,0.59326,29,51,152,87
46820,-0.79932,-0.008789,0.58643,29,51,152,87
46840,-0.80591,-0.001709,0.59131,29,51,152,87
46860,-0.7983399999999999,-0.014893,0.59595,29,51,152,87
46880,-0.81055,-0.020996,0.5776399999999999,29,51,152,87
46900,-0.8032199999999999,-0.023193,0.5786100000000001,29,51,152,87
