timestamp,accX,accY,accZ,Subject_ID,Age,Height_cm,Weight_kg
0,-0.92798,-0.14282,-0.25586,1,32,163,97
20,-0.81738,0.47168,0.15674,1,32,163,97
40,-0.88892,0.25366,0.22876,1,32,163,97
60,-0.85059,0.45874,0.16309,1,32,163,97
80,-0.93237,0.21045,-0.02417,1,32,163,97
100,-0.94898,-0.10742,-0.13818,1,32,163,97
120,-0.97046,-0.00952,-0.06665,1,32,163,97
140,-0.94067,0.09741,-0.06226,1,32,163,97
160,-0.9419,-0.18896,-0.18164,1,32,163,97
180,-0.97485,-0.02539,-0.08106,1,32,163,97
200,-0.95654,0.03735,-0.11914,1,32,163,97
220,-0.95288,-0.1228,-0.12549,1,32,163,97
240,-0.96069,-0.08789,-0.12891,1,32,163,97
260,-0.9563,0.03735,-0.03784,1,32,163,97
280,-0.97388,-0.04321,-0.11475,1,32,163,97
300,-0.96728,0.01538,-0.08911,1,32,163,97
320,-0.91748,-0.03857,-0.24731,1,32,163,97
340,-0.95093,0.1557599999999999,0.14893,1,32,163,97
360,-0.94702,0.198,0.18433,1,32,163,97
380,-0.97607,0.01416,-0.09009,1,32,163,97
400,-1.0012,-0.06226,-0.05957,1,32,163,97
420,-0.94312,0.12988,0.23047,1,32,163,97
440,-0.94531,0.1560099999999999,0.08716,1,32,163,97
460,-1.0063,0.1735799999999999,-0.13379,1,32,163,97
480,-0.77515,0.5466300000000001,0.11255,1,32,163,97
500,-0.92651,0.20801,0.15356,1,32,163,97
520,-0.94385,0.03418,-0.08374,1,32,163,97
540,-0.96069,-0.00757,-0.09204,1,32,163,97
560,-0.93188,-0.19605,-0.0603,1,32,163,97
580,-0.97217,-0.05859,-0.08935,1,32,163,97
600,-0.9668,0.04028,-0.0459,1,32,163,97
620,-0.90747,0.30322,0.05933,1,32,163,97
640,-0.99585,-0.01196,0.0105,1,32,163,97
660,-0.8471700000000001,0.38867,0.17163,1,32,163,97
680,-0.98364,-0.20239,-0.0625,1,32,163,97
700,-0.97974,0.00903,-0.06079,1,32,163,97
720,-0.97583,0.03979,0.1423299999999999,1,32,163,97
740,-0.77832,0.51807,0.1560099999999999,1,32,163,97
760,-0.96216,0.01929,-0.11108,1,32,163,97
780,-0.93481,0.19824,0.10693,1,32,163,97
800,-0.95337,-0.05322,-0.1377,1,32,163,97
820,-0.97363,-0.10156,-0.16138,1,32,163,97
840,-0.95386,0.01856,-0.10254,1,32,163,97
860,-0.95752,-0.11475,-0.17773,1,32,163,97
880,-0.94653,-0.11597,-0.14893,1,32,163,97
900,-0.95679,0.14307,0.13232,1,32,163,97
920,-0.97583,0.09521,0.26172,1,32,163,97
940,-0.96362,0.12305,0.02612,1,32,163,97
960,-0.96362,0.03345,-0.02905,1,32,163,97
980,-0.97119,0.04224,-0.0437,1,32,163,97
1000,-0.90259,0.24023,-0.25244,1,32,163,97
1020,-0.95361,0.13794,-0.13818,1,32,163,97
1040,-0.9602,0.03174,-0.13062,1,32,163,97
1060,-0.92114,0.14722,0.23999,1,32,163,97
1080,-0.85913,0.38184,-0.20703,1,32,163,97
1100,-0.95947,0.03394,0.13525,1,32,163,97
1120,-0.93213,0.21143,0.14429,1,32,163,97
1140,-0.95898,0.09033,-0.11768,1,32,163,97
1160,-0.9751,0.0686,-0.05249,1,32,163,97
1180,-0.94336,-0.13574,-0.06934,1,32,163,97
1200,-0.97803,0.02173,-0.0671399999999999,1,32,163,97
1220,-0.98584,0.14551,0.17822,1,32,163,97
1240,-0.94605,0.02368,-0.1062,1,32,163,97
1260,-0.93188,-0.19605,-0.0603,1,32,163,97
1280,-0.92651,0.21826,0.14648,1,32,163,97
1300,-0.91724,0.08325,0.11475,1,32,163,97
1320,-0.95337,0.03784,-0.1423299999999999,1,32,163,97
1340,-0.95435,-0.03979,-0.13574,1,32,163,97
1360,-0.96851,-0.00928,-0.06885,1,32,163,97
1380,-0.99487,-0.08106,-0.18481,1,32,163,97
1400,-0.96118,0.01074,-0.08008,1,32,163,97
1420,-0.9856,-0.01001,-0.04004,1,32,163,97
1440,-0.91431,0.21265,-0.21167,1,32,163,97
1460,-0.93213,0.20435,-0.11401,1,32,163,97
1480,-1.0347,0.16211,-0.0354,1,32,163,97
1500,-0.96411,-0.0581,-0.0751899999999999,1,32,163,97
1520,-0.95874,0.1423299999999999,0.23145,1,32,163,97
1540,-1.0022,0.03467,-0.03101,1,32,163,97
1560,-0.92749,-0.00708,-0.26563,1,32,163,97
1580,-0.95093,0.04419,-0.09619,1,32,163,97
1600,-0.96313,0.05835,0.15845,1,32,163,97
1620,-0.93042,-0.13135,-0.19605,1,32,163,97
1640,-0.90747,0.19067,-0.17822,1,32,163,97
1660,-0.95996,-0.1311,-0.21948,1,32,163,97
1680,-0.92871,0.12158,0.21729,1,32,163,97
1700,-0.9436,-0.0896,-0.18579,1,32,163,97
1720,-0.99292,0.0249,-0.02759,1,32,163,97
1740,-0.97852,-0.06787,-0.05054,1,32,163,97
1760,-0.94238,0.10986,0.08814,1,32,163,97
1780,-0.95605,-0.02197,-0.09741,1,32,163,97
1800,-0.95996,0.01636,-0.12866,1,32,163,97
1820,-0.97949,0.09692,0.06055,1,32,163,97
1840,-0.94214,0.1391599999999999,0.19629,1,32,163,97
1860,-0.94556,0.15991,-0.13232,1,32,163,97
1880,-0.8720700000000001,0.375,0.21021,1,32,163,97
1900,-0.9541,0.12842,-0.0791,1,32,163,97
1920,-0.94092,0.18823,0.13135,1,32,163,97
1940,-0.93774,-0.03686,-0.20947,1,32,163,97
1960,-0.95117,0.09082,-0.06885,1,32,163,97
1980,-0.93994,0.16821,-0.06152,1,32,163,97
2000,-0.97168,0.10156,-0.00659,1,32,163,97
2020,-0.94653,0.01587,-0.15308,1,32,163,97
2040,-0.94946,0.02002,-0.18066,1,32,163,97
2060,-0.94409,0.16162,0.16382,1,32,163,97
2080,-0.90503,-0.02954,-0.09131,1,32,163,97
2100,-0.95532,-0.05054,-0.02783,1,32,163,97
2120,-0.9419,0.21216,0.13818,1,32,163,97
2140,-0.97925,0.02515,-0.08301,1,32,163,97
2160,-0.96191,-0.04077,-0.0791,1,32,163,97
2180,-0.93066,0.07495,0.11548,1,32,163,97
2200,-0.96435,0.0529799999999999,0.0957,1,32,163,97
2220,-0.95166,0.09888,-0.04102,1,32,163,97
2240,-0.96533,0.0527299999999999,-0.03809,1,32,163,97
2260,-0.93921,0.09351,0.21777,1,32,163,97
2280,-0.97437,-0.01587,-0.10107,1,32,163,97
2300,-0.81494,0.48389,0.14844,2,51,181,80
2320,-0.8691399999999999,0.14624,0.1355,2,51,181,80
2340,-0.9563,0.02515,-0.10181,2,51,181,80
2360,-0.9519,0.06323,0.08496,2,51,181,80
2380,-0.96411,-0.00049,-0.06201,2,51,181,80
2400,-0.95337,0.04736,-0.09131,2,51,181,80
2420,-0.88574,0.38818,0.14722,2,51,181,80
2440,-0.95996,0.14502,0.13843,2,51,181,80
2460,-0.93823,-0.16626,-0.16992,2,51,181,80
2480,-0.86035,0.43652,0.15527,2,51,181,80
2500,-1.0374,0.0695799999999999,-0.11841,2,51,181,80
2520,-0.92578,0.20166,-0.16065,2,51,181,80
2540,-0.94849,0.1643099999999999,0.21118,2,51,181,80
2560,-0.94629,0.177,0.12036,2,51,181,80
2580,-0.97241,0.07642,0.00977,2,51,181,80
2600,-1.001,0.1355,-0.0647,2,51,181,80
2620,-0.9563,-0.23633,-0.13867,2,51,181,80
2640,-0.88574,0.31811,0.31055,2,51,181,80
2660,-0.9375,0.00513,-0.15698,2,51,181,80
2680,-0.95727,0.15234,0.15527,2,51,181,80
2700,-0.93823,0.13159,-0.06177,2,51,181,80
2720,-0.95044,0.06226,-0.0861799999999999,2,51,181,80
2740,-0.95313,0.18652,0.12866,2,51,181,80
2760,-0.88355,0.27441,-0.23462,2,51,181,80
2780,-0.8779299999999999,-0.09326,-0.33276,2,51,181,80
2800,-0.97949,0.06201,-0.03686,2,51,181,80
2820,-0.93042,0.17602,0.14453,2,51,181,80
2840,-0.9563,0.02954,-0.15185,2,51,181,80
2860,-0.95337,0.01172,-0.2124,2,51,181,80
2880,-0.93237,-0.04004,-0.26758,2,51,181,80
2900,-0.97266,-0.06519,-0.09326,2,51,181,80
2920,-0.94775,0.10474,0.1731,2,51,181,80
2940,-0.96704,0.12109,-0.06738,2,51,181,80
2960,-0.96802,-0.12207,-0.12256,2,51,181,80
2980,-0.97144,-0.10059,-0.15454,2,51,181,80
3000,-0.96606,0.03174,-0.03125,2,51,181,80
3020,-0.94946,-0.15405,-0.10352,2,51,181,80
3040,-0.9519,-0.0549299999999999,-0.125,2,51,181,80
3060,-0.9895,-0.01611,-0.08081,2,51,181,80
3080,-0.98096,-0.0603,-0.16016,2,51,181,80
3100,-0.90649,0.3772,0.23193,2,51,181,80
3120,-0.95313,0.21558,0.14575,2,51,181,80
3140,-0.94653,0.10474,0.13599,2,51,181,80
3160,-0.93994,-0.05566,-0.1272,2,51,181,80
3180,-0.96289,0.04541,-0.06274,2,51,181,80
3200,-0.92725,0.22192,0.15845,2,51,181,80
3220,-0.95557,-0.01758,-0.10669,2,51,181,80
3240,-0.97974,0.06909,0.08472,2,51,181,80
3260,-0.94092,-0.02588,-0.08057,2,51,181,80
3280,-0.93555,0.14355,0.22315,2,51,181,80
3300,-0.95459,-0.0437,-0.05957,2,51,181,80
3320,-0.93408,0.15869,-0.07544,2,51,181,80
3340,-0.94849,0.11157,0.00073,2,51,181,80
3360,-0.95459,-0.2019,-0.03491,2,51,181,80
3380,-0.94434,-0.02954,-0.14355,2,51,181,80
3400,-0.94556,-0.01148,-0.24634,2,51,181,80
3420,-0.96143,0.00806,-0.16504,2,51,181,80
3440,-0.93994,0.00562,0.12988,2,51,181,80
3460,-0.96191,-0.10254,-0.09521,2,51,181,80
3480,-0.9585,-0.18457,-0.07397,2,51,181,80
3500,-0.98657,-0.10986,-0.09229,2,51,181,80
3520,-0.92895,-0.14404,-0.27588,2,51,181,80
3540,-0.8886700000000001,0.32764,0.11719,2,51,181,80
3560,-0.96777,0.03442,0.13672,2,51,181,80
3580,-0.94409,-0.10425,-0.0852,2,51,181,80
3600,-0.90601,0.14648,-0.08765,2,51,181,80
3620,-0.8830600000000001,0.1704099999999999,0.15869,2,51,181,80
3640,-0.9353,0.28027,-0.30981,2,51,181,80
3660,-0.96973,-0.02026,-0.06152,2,51,181,80
3680,-0.95313,0.18652,0.12866,2,51,181,80
3700,-0.92944,0.09863,-0.1814,2,51,181,80
3720,-0.94556,0.19531,0.12305,2,51,181,80
3740,-0.96094,0.0166,-0.11572,2,51,181,80
3760,-0.8728,0.40039,0.11523,2,51,181,80
3780,-0.96411,-0.0625,-0.21509,2,51,181,80
3800,-0.96509,-0.02417,-0.08374,2,51,181,80
3820,-0.96411,-0.05469,-0.06811,2,51,181,80
3840,-1.0105,0.0571299999999999,-0.07153,2,51,181,80
3860,-0.92871,0.09668,0.14526,2,51,181,80
3880,-0.96875,-0.01538,-0.0708,2,51,181,80
3900,-0.9602,0.18921,0.13208,2,51,181,80
3920,-0.94556,0.01416,-0.11182,2,51,181,80
3940,-0.90405,0.21582,-0.26587,2,51,181,80
3960,-0.98267,0.05542,-0.21289,2,51,181,80
3980,-0.93628,0.1474599999999999,-0.10034,2,51,181,80
4000,-0.9502,-0.02148,-0.14477,2,51,181,80
4020,-0.96533,-0.07812,-0.03418,2,51,181,80
4040,-0.9707,-0.04663,-0.20532,2,51,181,80
4060,-0.95142,0.23682,0.14087,2,51,181,80
4080,-0.90942,0.0957,0.33667,2,51,181,80
4100,-0.93433,0.04907,0.20093,2,51,181,80
4120,-0.95605,-0.03247,-0.16968,2,51,181,80
4140,-0.96313,0.01685,-0.10718,2,51,181,80
4160,-0.95972,0.19263,0.15015,2,51,181,80
4180,-1.002,0.08862,-0.15283,2,51,181,80
4200,-0.95239,0.0671399999999999,-0.13745,2,51,181,80
4220,-0.94482,0.03296,-0.12915,2,51,181,80
4240,-0.8024899999999999,0.53613,0.16626,2,51,181,80
4260,-0.95654,0.18701,-0.16602,2,51,181,80
4280,-0.94092,0.02344,-0.21216,2,51,181,80
4300,-0.95288,0.02881,0.11377,2,51,181,80
4320,-0.94312,0.02954,0.12158,2,51,181,80
4340,-0.95654,-0.18213,-0.06177,2,51,181,80
4360,-0.83057,0.40039,0.06885,2,51,181,80
4380,-0.95239,-0.21631,-0.09985,2,51,181,80
4400,-0.9585,0.09302,0.15161,2,51,181,80
4420,-0.95996,0.0376,0.10669,2,51,181,80
4440,-0.92969,-0.05225,-0.26465,2,51,181,80
4460,-1.0125,0.0835,-0.06445,2,51,181,80
4480,-0.96265,-0.02197,-0.07764,2,51,181,80
4500,-0.90869,0.25903,0.14477,2,51,181,80
4520,-0.96118,0.00195,0.0,2,51,181,80
4540,-0.94824,-0.03052,0.04736,2,51,181,80
4560,-0.9585,-0.18457,-0.07397,2,51,181,80
4580,-0.9563,0.12256,-0.11987,2,51,181,80
4600,-0.94751,0.01685,-0.1394,2,51,181,80
4620,-0.96582,0.04834,-0.07031,2,51,181,80
4640,-0.9209,0.22388,0.17627,2,51,181,80
4660,-0.96484,0.16309,0.10962,2,51,181,80
4680,-0.93237,-0.0061,-0.20605,2,51,181,80
4700,-0.95508,-0.01538,-0.06934,2,51,181,80
4720,-0.97119,-0.052,-0.08765,2,51,181,80
4740,-0.96558,0.02832,-0.05542,2,51,181,80
4760,-0.89844,0.3010199999999999,0.20654,2,51,181,80
4780,-0.97974,-0.08106,-0.09595,2,51,181,80
4800,-0.9812,0.05176,0.09985,2,51,181,80
4820,-0.94922,-0.10449,-0.11328,2,51,181,80
4840,-0.98096,-0.13648,-0.23706,2,51,181,80
4860,-0.96435,0.02637,-0.1557599999999999,2,51,181,80
4880,-0.95727,0.04126,-0.06079,2,51,181,80
4900,-0.94507,-0.01099,-0.16357,2,51,181,80
4920,-0.9624,-0.08545,-0.10254,2,51,181,80
4940,-0.95508,0.04688,-0.11963,2,51,181,80
4960,-0.95776,0.07495,-0.1340299999999999,2,51,181,80
4980,-0.98169,-0.01904,-0.06982,2,51,181,80
5000,-0.94312,-0.09399,-0.1626,2,51,181,80
5020,-0.95581,0.02344,0.13013,2,51,181,80
5040,-0.8735299999999999,0.38696,0.10791,2,51,181,80
5060,-0.94849,-0.23169,-0.1474599999999999,2,51,181,80
5080,-0.81714,0.4809600000000001,0.14868,3,38,171,61
5100,-0.96045,0.01318,-0.12793,3,38,171,61
5120,-0.94214,0.20117,0.16602,3,38,171,61
5140,-0.96851,0.03198,-0.06421,3,38,171,61
5160,-0.96069,0.02124,-0.0481,3,38,171,61
5180,-0.96045,-0.01831,-0.1416,3,38,171,61
5200,-0.8806200000000001,-0.0813,-0.13379,3,38,171,61
5220,-0.93994,0.00562,0.12988,3,38,171,61
5240,-0.92529,-0.0778799999999999,-0.2561,3,38,171,61
5260,-0.9585,0.05151,-0.09277,3,38,171,61
5280,-0.94629,-0.07959,-0.20801,3,38,171,61
5300,-0.95068,-0.09399,-0.09009,3,38,171,61
5320,-0.93872,0.15967,0.09302,3,38,171,61
5340,-0.94531,0.07251,0.07397,3,38,171,61
5360,-0.95727,-0.08057,-0.05029,3,38,171,61
5380,-0.93921,0.19605,0.12378,3,38,171,61
5400,-0.95337,0.01172,-0.2124,3,38,171,61
5420,-0.94873,0.125,0.27173,3,38,171,61
5440,-0.80615,0.43335,0.14429,3,38,171,61
5460,-0.78027,0.54785,0.15161,3,38,171,61
5480,-0.90576,0.28174,0.16284,3,38,171,61
5500,-0.9231,0.0671399999999999,-0.10425,3,38,171,61
5520,-0.9668,0.09497,-0.01587,3,38,171,61
5540,-0.90161,-0.00659,-0.3208,3,38,171,61
5560,-0.94263,0.16065,0.14136,3,38,171,61
5580,-0.9624,0.0188,-0.08984,3,38,171,61
5600,-0.69312,0.70215,-0.00977,3,38,171,61
5620,-0.95508,0.09399,-0.05762,3,38,171,61
5640,-0.95874,0.03711,-0.10523,3,38,171,61
5660,-0.9502,-0.14331,-0.28198,3,38,171,61
5680,-0.95947,0.11939,0.0549299999999999,3,38,171,61
5700,-0.97363,0.01294,-0.06226,3,38,171,61
5720,-0.95801,0.073,0.2981,3,38,171,61
5740,-0.96582,0.0527299999999999,-0.05542,3,38,171,61
5760,-0.95459,0.10767,0.21484,3,38,171,61
5780,-0.93066,-0.04565,-0.10962,3,38,171,61
5800,-0.90991,0.25732,-0.12354,3,38,171,61
5820,-0.95874,0.02539,-0.12622,3,38,171,61
5840,-0.93799,0.13135,0.21655,3,38,171,61
5860,-0.948,-0.0271,-0.20288,3,38,171,61
5880,-0.95776,0.1330599999999999,0.09229,3,38,171,61
5900,-0.93677,0.14282,0.20972,3,38,171,61
5920,-0.96704,-0.04688,-0.0542,3,38,171,61
5940,-0.98828,0.13525,0.17529,3,38,171,61
5960,-0.95972,0.11084,-0.05249,3,38,171,61
5980,-0.97192,0.1062,0.11597,3,38,171,61
6000,-0.93652,0.13477,0.22461,3,38,171,61
6020,-0.97046,-0.01709,-0.06372,3,38,171,61
6040,-0.96118,-0.01025,0.08935,3,38,171,61
6060,-0.97559,0.01929,-0.13648,3,38,171,61
6080,-0.9148,0.25269,0.08814,3,38,171,61
6100,-0.90454,0.29541,0.20044,3,38,171,61
6120,-0.94019,0.18774,0.12622,3,38,171,61
6140,-0.94434,0.2334,0.10889,3,38,171,61
6160,-0.90088,0.16895,0.06372,3,38,171,61
6180,-0.94751,0.1272,0.21509,3,38,171,61
6200,-0.94214,0.1391599999999999,0.19629,3,38,171,61
6220,-0.93994,-0.07471,-0.1687,3,38,171,61
6240,-0.81714,0.50635,0.16748,3,38,171,61
6260,-0.95972,-0.0542,-0.09668,3,38,171,61
6280,-0.95874,-0.02466,-0.14331,3,38,171,61
6300,-0.95776,-0.0820299999999999,-0.19092,3,38,171,61
6320,-0.93726,0.20679,0.0669,3,38,171,61
6340,-0.95435,0.17651,0.12915,3,38,171,61
6360,-0.93286,-0.18335,-0.2207,3,38,171,61
6380,-0.96289,0.00708,-0.06177,3,38,171,61
6400,-0.96069,-0.00855,-0.11011,3,38,171,61
6420,-0.93481,0.19824,0.10693,3,38,171,61
6440,-0.95093,-0.01269,-0.15356,3,38,171,61
6460,-0.86597,0.29468,0.1059599999999999,3,38,171,61
6480,-0.95703,0.13452,0.1294,3,38,171,61
6500,-0.98145,-0.09058,-0.08106,3,38,171,61
6520,-0.92773,0.07153,-0.10083,3,38,171,61
6540,-0.7639199999999999,0.57471,0.11572,3,38,171,61
6560,-0.96997,0.03516,0.0751899999999999,3,38,171,61
6580,-0.96826,0.12109,0.11987,3,38,171,61
6600,-0.7419399999999999,0.6167,0.01123,3,38,171,61
6620,-0.96289,-0.09204,-0.1311,3,38,171,61
6640,-0.97217,-0.04761,-0.09839,3,38,171,61
6660,-0.94727,0.11816,-0.07397,3,38,171,61
6680,-0.9773,0.04004,-0.0571299999999999,3,38,171,61
6700,-0.97852,0.021,-0.14795,3,38,171,61
6720,-0.8186,0.53418,0.17847,3,38,171,61
6740,-0.96728,0.02905,0.11328,3,38,171,61
6760,-0.96069,-0.00855,-0.073,3,38,171,61
6780,-0.88135,0.38281,0.18237,3,38,171,61
6800,-1.0205,-0.04712,-0.11279,3,38,171,61
6820,-0.90283,0.26221,0.15869,3,38,171,61
6840,-0.94727,-0.00488,-0.12134,3,38,171,61
6860,-0.98682,0.08154,-0.03027,3,38,171,61
6880,-0.95654,0.02441,-0.14648,3,38,171,61
6900,-0.96753,-0.0581,-0.04834,3,38,171,61
6920,-0.96216,-0.10425,-0.14185,3,38,171,61
6940,-0.95654,-0.1423299999999999,-0.05371,3,38,171,61
6960,-0.92114,0.16113,0.2417,3,38,171,61
6980,-0.91528,-0.09741,-0.30835,3,38,171,61
7000,-0.96997,-0.06934,-0.0957,3,38,171,61
7020,-0.96631,-0.00659,-0.0671399999999999,3,38,171,61
7040,-0.97412,0.1106,0.12988,3,38,171,61
7060,-0.9375,0.04858,-0.19653,3,38,171,61
7080,-0.94409,0.16162,0.16382,3,38,171,61
7100,-0.94385,0.1057099999999999,-0.18774,3,38,171,61
7120,-0.8667,0.16504,0.11572,3,38,171,61
7140,-0.94165,0.20483,0.11548,3,38,171,61
7160,-0.95117,0.05347,0.10132,3,38,171,61
7180,-0.90552,0.19336,0.11646,3,38,171,61
7200,-0.95508,-0.05176,-0.1853,3,38,171,61
7220,-0.96851,0.00488,-0.09302,3,38,171,61
7240,-0.9646,0.09277,0.18066,3,38,171,61
7260,-0.96338,-0.01123,-0.09131,3,38,171,61
7280,-0.94507,0.05908,-0.06885,3,38,171,61
7300,-0.93433,0.04907,0.20093,3,38,171,61
7320,-1.0903,-0.05176,0.0188,3,38,171,61
7340,-0.96997,-0.1355,-0.19409,3,38,171,61
7360,-0.97632,0.1709,-0.13892,3,38,171,61
7380,-0.91333,0.20068,0.10962,3,38,171,61
7400,-0.93799,0.14551,0.27051,3,38,171,61
7420,-0.93237,-0.04004,-0.26758,3,38,171,61
7440,-0.9231,-0.21094,-0.20044,3,38,171,61
7460,-0.9707,0.03638,0.04981,3,38,171,61
7480,-0.96094,0.04175,0.11694,3,38,171,61
7500,-0.95215,-0.02368,-0.05737,3,38,171,61
7520,-0.94849,0.21826,-0.08032,3,38,171,61
7540,-0.948,-0.18091,-0.08569,3,38,171,61
7560,-0.87402,0.23364,0.10889,3,38,171,61
7580,-0.94263,-0.02539,-0.20093,3,38,171,61
7600,-0.77563,0.53735,0.17334,3,38,171,61
7620,-0.93506,0.15185,-0.15161,3,38,171,61
7640,-0.94605,0.24731,0.19727,3,38,171,61
7660,-0.93848,-0.03833,-0.06787,3,38,171,61
7680,-0.95483,-0.03076,-0.11255,3,38,171,61
7700,-0.92407,0.1704099999999999,0.07959,3,38,171,61
7720,-0.81812,0.51343,0.13648,3,38,171,61
7740,-0.94312,-0.1145,-0.13623,3,38,171,61
7760,-0.93579,0.0437,-0.16113,3,38,171,61
7780,-0.94019,-0.0083,-0.07642,3,38,171,61
7800,-0.8999,-0.23462,-0.2439,3,38,171,61
7820,-0.9646,0.07446,0.13965,3,38,171,61
7840,-0.92578,-0.05981,-0.22046,3,38,171,61
7860,-0.96875,0.05395,0.09692,4,41,160,76
7880,-0.92432,-0.02856,-0.09033,4,41,160,76
7900,-0.96777,0.00537,-0.13184,4,41,160,76
7920,-0.96899,0.06616,0.09326,4,41,160,76
7940,-0.93335,0.11865,0.20727,4,41,160,76
7960,-0.98901,-0.04785,-0.11841,4,41,160,76
7980,-0.91357,0.23291,-0.0979,4,41,160,76
8000,-0.8169,0.4873,0.12061,4,41,160,76
8020,-0.96533,0.0527299999999999,-0.03809,4,41,160,76
8040,-0.96387,0.01099,-0.04492,4,41,160,76
8060,-0.97046,0.08984,0.07105,4,41,160,76
8080,-0.90991,0.03174,-0.29883,4,41,160,76
8100,-0.96875,-0.03979,-0.02368,4,41,160,76
8120,-0.97217,0.07153,0.11621,4,41,160,76
8140,-0.95532,-0.04419,-0.14819,4,41,160,76
8160,-0.93359,0.0791,-0.17725,4,41,160,76
8180,-0.9563,0.01978,-0.10767,4,41,160,76
8200,-0.91089,0.30151,0.0751899999999999,4,41,160,76
8220,-0.94702,-0.16187,-0.18555,4,41,160,76
8240,-0.927,-0.15185,-0.05347,4,41,160,76
8260,-0.9668,0.17627,-0.0542,4,41,160,76
8280,-0.93652,-0.06543,-0.16016,4,41,160,76
8300,-0.96387,0.0822799999999999,-0.04688,4,41,160,76
8320,-0.94507,-0.0751899999999999,-0.14673,4,41,160,76
8340,-0.92993,0.20605,0.12866,4,41,160,76
8360,-0.89697,-0.22388,-0.19653,4,41,160,76
8380,-1.0183,-0.17651,0.19409,4,41,160,76
8400,-0.96313,0.0671399999999999,-0.1355,4,41,160,76
8420,-0.9707,0.16675,-0.10474,4,41,160,76
8440,-0.93506,-0.18066,-0.23193,4,41,160,76
8460,-0.9707,0.14795,0.14893,4,41,160,76
8480,-0.93677,0.17285,0.11914,4,41,160,76
8500,-0.98462,-0.0737299999999999,-0.05981,4,41,160,76
8520,-0.97241,-0.17212,-0.04272,4,41,160,76
8540,-0.92261,-0.00928,-0.25561,4,41,160,76
8560,-0.95776,0.03174,0.11816,4,41,160,76
8580,-0.94751,0.18213,0.1328099999999999,4,41,160,76
8600,-0.95923,-0.1355,-0.05347,4,41,160,76
8620,-0.81494,0.48389,0.14844,4,41,160,76
8640,-0.92773,0.03589,-0.22632,4,41,160,76
8660,-0.9541,0.15015,0.13525,4,41,160,76
8680,-0.9751,-0.01856,-0.02759,4,41,160,76
8700,-0.94019,0.03052,-0.2289999999999999,4,41,160,76
8720,-0.91626,-0.07349,-0.28271,4,41,160,76
8740,-0.96728,0.05566,-0.04517,4,41,160,76
8760,-0.95605,0.10156,0.14404,4,41,160,76
8780,-0.99341,0.09863,0.05225,4,41,160,76
8800,-0.9624,0.02734,-0.03027,4,41,160,76
8820,-0.9541,0.07422,-0.08472,4,41,160,76
8840,-0.89038,0.37329,0.16992,4,41,160,76
8860,-0.93945,0.13086,-0.15454,4,41,160,76
8880,-0.87769,0.20776,0.15454,4,41,160,76
8900,-0.88892,0.25366,0.22876,4,41,160,76
8920,-0.9585,0.11011,-0.07495,4,41,160,76
8940,-0.94898,0.0778799999999999,-0.16699,4,41,160,76
8960,-0.93652,0.09863,-0.07715,4,41,160,76
8980,-0.96143,0.14307,0.00855,4,41,160,76
9000,-0.94629,0.00122,-0.09985,4,41,160,76
9020,-0.97363,-0.1355,-0.08398,4,41,160,76
9040,-0.9104,-0.073,-0.33984,4,41,160,76
9060,-0.9602,0.19482,0.1330599999999999,4,41,160,76
9080,-0.93701,-0.14868,-0.25,4,41,160,76
9100,-0.94653,-0.11597,-0.14893,4,41,160,76
9120,-0.91016,0.30591,0.09424,4,41,160,76
9140,-0.9646,0.0249,0.15234,4,41,160,76
9160,-0.9602,0.02075,-0.07056,4,41,160,76
9180,-0.94336,-0.04492,-0.23047,4,41,160,76
9200,-0.95435,-0.03979,-0.13574,4,41,160,76
9220,-0.94214,0.02026,-0.1604,4,41,160,76
9240,-0.93481,0.1787099999999999,0.13135,4,41,160,76
9260,-0.97461,-0.146,-0.02734,4,41,160,76
9280,-0.94507,-0.14136,-0.16016,4,41,160,76
9300,-0.94727,0.04712,-0.07959,4,41,160,76
9320,-0.94922,-0.03906,-0.0820299999999999,4,41,160,76
9340,-0.96191,0.12817,0.02026,4,41,160,76
9360,-0.95459,0.10767,0.21484,4,41,160,76
9380,-0.8444799999999999,0.46118,-0.10986,4,41,160,76
9400,-0.97803,0.0564,0.04126,4,41,160,76
9420,-0.8547399999999999,0.44434,0.13208,4,41,160,76
9440,-0.9419,0.18262,0.13086,4,41,160,76
9460,-0.94019,0.0564,-0.14966,4,41,160,76
9480,-0.9624,-0.03516,-0.0769,4,41,160,76
9500,-0.96558,0.05444,0.07812,4,41,160,76
9520,-0.95532,-0.04419,-0.14819,4,41,160,76
9540,-0.90332,0.07324,-0.28882,4,41,160,76
9560,-0.9773,0.10352,-0.01587,4,41,160,76
9580,-0.93506,0.18359,0.16821,4,41,160,76
9600,-0.96435,0.02637,-0.1557599999999999,4,41,160,76
9620,-0.93359,0.13135,0.21021,4,41,160,76
9640,-0.9956,-0.08569,-0.01099,4,41,160,76
9660,-0.95044,-0.01538,-0.09326,4,41,160,76
9680,-0.9646,-0.04297,-0.05786,4,41,160,76
9700,-0.96484,0.03906,-0.10645,4,41,160,76
9720,-0.96558,0.05395,-0.02393,4,41,160,76
9740,-0.979,0.04858,0.12866,4,41,160,76
9760,-0.94409,-0.00879,-0.21387,4,41,160,76
9780,-0.96948,-0.04981,-0.08911,4,41,160,76
9800,-0.94775,0.14014,0.0686,4,41,160,76
9820,-0.96167,0.01831,-0.10156,4,41,160,76
9840,-0.92358,-0.12817,-0.1557599999999999,4,41,160,76
9860,-0.91528,-0.13062,-0.28418,4,41,160,76
9880,-0.99341,0.09863,0.05225,4,41,160,76
9900,-0.96924,-0.01074,-0.07227,4,41,160,76
9920,-0.9314,0.18652,0.1106,4,41,160,76
9940,-0.9624,0.0188,-0.08984,4,41,160,76
9960,-0.98169,0.08032,-0.08862,4,41,160,76
9980,-1.1082,-0.12817,-0.10034,4,41,160,76
10000,-0.93897,0.19214,0.12646,4,41,160,76
10020,-0.96753,-0.01318,-0.25391,4,41,160,76
10040,-0.96704,-0.09521,0.02368,4,41,160,76
10060,-0.96216,-0.07959,-0.19458,4,41,160,76
10080,-0.96143,0.12134,0.1416,4,41,160,76
10100,-0.95801,0.1604,0.11133,4,41,160,76
10120,-0.93262,0.11084,0.11987,4,41,160,76
10140,-0.95825,-0.03906,-0.09131,4,41,160,76
10160,-0.94507,0.06592,-0.13086,4,41,160,76
10180,-0.95313,0.06543,-0.07324,4,41,160,76
10200,-0.96802,-0.06152,-0.08472,4,41,160,76
10220,-0.94946,0.07056,-0.15381,4,41,160,76
10240,-0.96606,-0.12451,-0.09009,4,41,160,76
10260,-0.9585,0.09302,0.15161,4,41,160,76
10280,-0.97876,-0.02246,-0.05225,4,41,160,76
10300,-0.93115,0.03662,-0.05981,4,41,160,76
10320,-0.96655,0.06396,-0.09936,4,41,160,76
10340,-0.78198,0.53491,0.17065,4,41,160,76
10360,-0.97461,-0.07739,-0.10254,4,41,160,76
10380,-0.95874,0.00171,-0.06982,4,41,160,76
10400,-0.96265,-0.03857,-0.07642,4,41,160,76
10420,-0.93384,0.24292,0.09155,4,41,160,76
10440,-0.92529,0.2019,-0.12964,4,41,160,76
10460,-0.95142,-0.08935,-0.15625,4,41,160,76
10480,-0.96851,0.04761,0.12256,4,41,160,76
10500,-0.95972,-0.13208,-0.1391599999999999,4,41,160,76
10520,-0.95361,0.09497,-0.12256,4,41,160,76
10540,-0.94312,-0.21826,-0.2395,4,41,160,76
10560,-0.94385,-0.13989,-0.21655,4,41,160,76
10580,-0.94507,-0.01099,-0.16357,5,48,184,80
10600,-0.81616,0.48315,0.15454,5,48,184,80
10620,-0.91504,-0.02368,-0.36768,5,48,184,80
10640,-0.97339,-0.08887,-0.32422,5,48,184,80
10660,-0.91797,0.0105,0.25049,5,48,184,80
10680,-0.94946,0.10523,-0.1189,5,48,184,80
10700,-0.91284,0.2832,0.10791,5,48,184,80
10720,-0.88281,0.10034,-0.21191,5,48,184,80
10740,-0.95776,0.25561,0.26148,5,48,184,80
10760,-0.90894,0.3584,0.21362,5,48,184,80
10780,-0.94653,-0.12915,-0.04614,5,48,184,80
10800,-0.96362,-0.01611,-0.13696,5,48,184,80
10820,-0.99268,-0.1106,-0.17847,5,48,184,80
10840,-0.93921,0.12695,0.26807,5,48,184,80
10860,-0.98193,-0.05176,-0.10449,5,48,184,80
10880,-0.95508,-0.13232,-0.1425799999999999,5,48,184,80
10900,-0.90381,-0.00073,-0.36426,5,48,184,80
10920,-0.9397,-0.2041,-0.1792,5,48,184,80
10940,-0.94458,0.06152,-0.21606,5,48,184,80
10960,-0.93091,-0.09863,-0.19873,5,48,184,80
10980,-0.9419,0.20898,0.1333,5,48,184,80
11000,-0.91309,-0.19482,-0.24951,5,48,184,80
11020,-0.94946,-0.12012,-0.28662,5,48,184,80
11040,-0.96338,0.11597,-0.07861,5,48,184,80
11060,-0.95532,0.07495,0.00488,5,48,184,80
11080,-0.96435,0.02441,-0.11011,5,48,184,80
11100,-0.95898,-0.02954,-0.10669,5,48,184,80
11120,-0.927,0.03345,0.24316,5,48,184,80
11140,-0.97583,-0.02441,-0.05957,5,48,184,80
11160,-0.9729,-0.0581,-0.23291,5,48,184,80
11180,-0.7773399999999999,0.54761,0.16626,5,48,184,80
11200,-0.95215,-0.1023,-0.15796,5,48,184,80
11220,-0.94873,0.04443,-0.13696,5,48,184,80
11240,-0.94238,-0.07861,-0.17456,5,48,184,80
11260,-0.95435,0.20093,0.1391599999999999,5,48,184,80
11280,-0.9541,0.12842,0.19116,5,48,184,80
11300,-0.96069,0.03003,-0.16357,5,48,184,80
11320,-0.97461,-0.09155,-0.07471,5,48,184,80
11340,-0.94385,0.22681,0.20703,5,48,184,80
11360,-0.96851,0.1167,0.13648,5,48,184,80
11380,-0.96875,0.00391,-0.05591,5,48,184,80
11400,-0.93164,0.0822799999999999,-0.16309,5,48,184,80
11420,-0.8901399999999999,0.03564,-0.29712,5,48,184,80
11440,-0.92676,0.00684,-0.19727,5,48,184,80
11460,-0.95435,0.06177,-0.08154,5,48,184,80
11480,-0.97217,0.10498,0.21094,5,48,184,80
11500,-0.94385,-0.13355,-0.03442,5,48,184,80
11520,-0.95727,0.15234,0.15527,5,48,184,80
11540,-0.96728,-0.02319,-0.04028,5,48,184,80
11560,-0.96362,-0.08911,-0.12085,5,48,184,80
11580,-0.92383,0.29907,0.1897,5,48,184,80
11600,-0.96216,0.10498,0.02222,5,48,184,80
11620,-0.9458,-0.05029,-0.146,5,48,184,80
11640,-0.96265,0.04248,-0.02661,5,48,184,80
11660,-0.94629,0.11255,0.07886,5,48,184,80
11680,-0.92554,0.19043,0.11157,5,48,184,80
11700,-0.96558,-0.01929,-0.09399,5,48,184,80
11720,-0.96851,0.04248,0.12061,5,48,184,80
11740,-0.87524,-0.11719,-0.10523,5,48,184,80
11760,-0.97022,-0.03442,-0.04053,5,48,184,80
11780,-0.96704,0.0044,-0.08447,5,48,184,80
11800,-0.93384,-0.00586,-0.1709,5,48,184,80
11820,-0.94946,-0.15405,-0.10352,5,48,184,80
11840,-0.97217,-0.05859,-0.0874,5,48,184,80
11860,-0.96631,-0.01904,-0.13965,5,48,184,80
11880,-0.92944,-0.19165,-0.1687,5,48,184,80
11900,-0.94873,0.04126,-0.03369,5,48,184,80
11920,-0.99902,-0.09815,0.00684,5,48,184,80
11940,-0.94873,0.15137,0.09595,5,48,184,80
11960,-0.9209,0.18018,0.09424,5,48,184,80
11980,-0.92017,0.29224,0.12695,5,48,184,80
12000,-0.69312,0.70215,-0.00977,5,48,184,80
12020,-0.96167,-0.0078099999999999,-0.08569,5,48,184,80
12040,-0.95166,-0.01733,-0.12769,5,48,184,80
12060,-0.96728,0.02417,0.11011,5,48,184,80
12080,-0.92505,-0.02173,-0.19605,5,48,184,80
12100,-0.95313,0.17822,-0.04907,5,48,184,80
12120,-0.92944,-0.19067,-0.19409,5,48,184,80
12140,-0.98291,0.00855,-0.22778,5,48,184,80
12160,-0.9231,0.14477,0.25098,5,48,184,80
12180,-0.9436,-0.04028,-0.01343,5,48,184,80
12200,-0.88379,0.0083,-0.23852,5,48,184,80
12220,-0.92407,0.1704099999999999,0.07959,5,48,184,80
12240,-0.93481,0.22754,0.14722,5,48,184,80
12260,-0.97363,0.10278,-0.10767,5,48,184,80
12280,-0.90527,-0.15185,-0.36157,5,48,184,80
12300,-0.8689,0.23071,0.0864299999999999,5,48,184,80
12320,-0.9331,0.17114,0.15234,5,48,184,80
12340,-0.93213,0.14966,0.24683,5,48,184,80
12360,-0.96216,-0.02075,-0.05469,5,48,184,80
12380,-0.95947,-0.0822799999999999,-0.10718,5,48,184,80
12400,-0.95483,0.11035,-0.11035,5,48,184,80
12420,-0.95727,0.05859,0.10742,5,48,184,80
12440,-0.96484,0.04785,0.10767,5,48,184,80
12460,-0.96118,-0.17847,-0.09009,5,48,184,80
12480,-0.9729,-0.03955,-0.05249,5,48,184,80
12500,-0.99048,-0.10327,-0.06396,5,48,184,80
12520,-0.96362,-0.01611,-0.13696,5,48,184,80
12540,-0.95435,0.06177,-0.11035,5,48,184,80
12560,-0.92114,0.18237,0.14551,5,48,184,80
12580,-0.948,0.1936,0.14453,5,48,184,80
12600,-0.9353,0.12109,0.09985,5,48,184,80
12620,-0.95532,-0.0647,-0.19678,5,48,184,80
12640,-0.95605,0.01807,-0.11206,5,48,184,80
12660,-0.94653,-0.03516,-0.16382,5,48,184,80
12680,-0.95264,0.20142,0.1648,5,48,184,80
12700,-0.96509,0.17285,-0.00122,5,48,184,80
12720,-0.94946,0.02002,-0.18066,5,48,184,80
12740,-0.95337,-0.15454,-0.0136699999999999,5,48,184,80
12760,-0.95898,0.17554,0.08374,5,48,184,80
12780,-0.93213,-0.27588,-0.12134,5,48,184,80
12800,-0.93994,0.11963,-0.10645,5,48,184,80
12820,-0.95703,-0.0669,-0.10376,5,48,184,80
12840,-0.95972,-0.0712899999999999,-0.12695,5,48,184,80
12860,-0.94238,0.02344,-0.17163,5,48,184,80
12880,-0.9751,-0.03638,-0.05151,5,48,184,80
12900,-0.9231,0.14477,0.25098,5,48,184,80
12920,-0.9375,0.14111,0.2229,5,48,184,80
12940,-0.97656,0.02002,-0.1423299999999999,5,48,184,80
12960,-0.9353,0.01123,-0.1272,5,48,184,80
12980,-0.92578,-0.09815,-0.22266,5,48,184,80
13000,-0.96484,0.03442,0.05908,5,48,184,80
13020,-0.96313,0.03516,-0.03442,5,48,184,80
13040,-0.93091,0.15918,0.10181,5,48,184,80
13060,-0.86011,0.39233,0.18823,5,48,184,80
13080,-0.9624,0.03052,0.06372,5,48,184,80
13100,-0.91577,-0.19019,-0.29443,5,48,184,80
13120,-0.98608,-0.07544,-0.09009,5,48,184,80
13140,-0.98218,-0.18579,0.22217,5,48,184,80
13160,-0.948,0.15015,-0.04248,5,48,184,80
13180,-0.89038,-0.22949,-0.31177,5,48,184,80
13200,-0.96802,-0.01001,-0.0820299999999999,5,48,184,80
13220,-0.95386,-0.17139,-0.00732,5,48,184,80
13240,-0.9502,-0.10523,-0.13013,5,48,184,80
13260,-0.96167,0.04639,-0.0864299999999999,5,48,184,80
13280,-0.93726,-0.0896,-0.28564,5,48,184,80
13300,-0.95215,-0.1709,-0.12476,5,48,184,80
13320,-0.94946,0.01514,-0.09961,5,48,184,80
13340,-0.6713899999999999,0.69922,0.0551799999999999,6,47,183,50
13360,-0.90527,0.0166,-0.18091,6,47,183,50
13380,-0.97559,-0.0686,-0.0820299999999999,6,47,183,50
13400,-0.95386,0.14111,0.19312,6,47,183,50
13420,-0.98389,-0.13355,-0.0105,6,47,183,50
13440,-0.97437,0.1643099999999999,-0.39697,6,47,183,50
13460,-0.9602,0.02246,-0.01831,6,47,183,50
13480,-0.93433,0.13867,0.2251,6,47,183,50
13500,-0.94751,0.01685,-0.1394,6,47,183,50
13520,-0.97632,-0.03418,-0.01172,6,47,183,50
13540,-0.94263,-0.00684,-0.10425,6,47,183,50
13560,-0.94019,0.1391599999999999,0.2146,6,47,183,50
13580,-0.95557,-0.04712,-0.20923,6,47,183,50
13600,-0.94409,-0.15185,-0.10791,6,47,183,50
13620,-0.93628,0.18652,0.12305,6,47,183,50
13640,-0.92163,-0.21094,0.05884,6,47,183,50
13660,-0.96094,-0.00928,-0.09668,6,47,183,50
13680,-0.97241,0.04004,0.13818,6,47,183,50
13700,-0.93115,0.03662,-0.05981,6,47,183,50
13720,-0.97656,0.00049,-0.09473,6,47,183,50
13740,-0.96826,-0.00879,-0.10718,6,47,183,50
13760,-0.95752,0.198,0.13818,6,47,183,50
13780,-0.99023,0.09253,-0.22803,6,47,183,50
13800,-0.95825,0.01148,-0.07837,6,47,183,50
13820,-0.95044,-0.01196,-0.27759,6,47,183,50
13840,-0.92749,0.17822,0.24365,6,47,183,50
13860,-0.96509,0.05151,0.1062,6,47,183,50
13880,-0.9668,0.0188,-0.10449,6,47,183,50
13900,-0.91943,0.18848,0.11841,6,47,183,50
13920,-0.93603,0.2146,0.16846,6,47,183,50
13940,-0.78955,0.54395,0.18213,6,47,183,50
13960,-0.96948,0.03272,-0.04785,6,47,183,50
13980,-0.9502,-0.14331,-0.28198,6,47,183,50
14000,-0.93652,0.07251,-0.06738,6,47,183,50
14020,-1.0125,0.0835,-0.06445,6,47,183,50
14040,-0.96509,0.1145,0.08325,6,47,183,50
14060,-0.97119,0.02832,0.10889,6,47,183,50
14080,-0.95776,0.03345,-0.11646,6,47,183,50
14100,-0.93506,0.15185,-0.15161,6,47,183,50
14120,-0.98657,-0.11401,0.02173,6,47,183,50
14140,-0.91528,-0.0415,-0.11523,6,47,183,50
14160,-0.97998,0.01099,0.1057099999999999,6,47,183,50
14180,-0.97583,-0.02441,-0.05957,6,47,183,50
14200,-0.9519,0.0481,-0.14136,6,47,183,50
14220,-0.9248,0.1557599999999999,0.09033,6,47,183,50
14240,-0.98315,0.13672,0.10352,6,47,183,50
14260,-0.9856,-0.00708,0.12817,6,47,183,50
14280,-0.94409,0.14477,0.16284,6,47,183,50
14300,-0.96655,0.09888,0.09033,6,47,183,50
14320,-0.93848,0.07251,-0.1189,6,47,183,50
14340,-0.92285,0.35034,0.0376,6,47,183,50
14360,-0.96777,-0.02612,-0.0737299999999999,6,47,183,50
14380,-0.95581,0.07812,-0.00415,6,47,183,50
14400,-0.99048,-0.10327,-0.06396,6,47,183,50
14420,-0.96851,-0.1057099999999999,-0.00977,6,47,183,50
14440,-0.96875,-0.0549299999999999,-0.10352,6,47,183,50
14460,-0.95581,0.14917,0.09375,6,47,183,50
14480,-0.8220200000000001,0.47876,0.14111,6,47,183,50
14500,-0.95898,0.04761,-0.09033,6,47,183,50
14520,-0.92578,0.21362,0.14893,6,47,183,50
14540,-0.9419,0.17114,0.1738299999999999,6,47,183,50
14560,-0.92676,0.16748,0.10205,6,47,183,50
14580,-0.9668,0.09497,-0.01587,6,47,183,50
14600,-0.948,0.18652,0.0822799999999999,6,47,183,50
14620,-0.92676,0.00684,-0.19727,6,47,183,50
14640,-0.97461,0.03272,0.06592,6,47,183,50
14660,-0.96216,0.052,-0.07935,6,47,183,50
14680,-0.9375,0.19678,0.14136,6,47,183,50
14700,-0.98657,0.03125,-0.06103,6,47,183,50
14720,-0.96338,-0.00098,-0.07593,6,47,183,50
14740,-0.97925,0.12988,0.33081,6,47,183,50
14760,-0.9519,-0.07495,-0.18799,6,47,183,50
14780,-0.96582,0.05469,0.12915,6,47,183,50
14800,-0.92407,-0.08887,-0.1831,6,47,183,50
14820,-0.92749,0.20947,0.2041,6,47,183,50
14840,-0.96167,-0.00366,-0.02539,6,47,183,50
14860,-0.92505,0.06396,-0.10425,6,47,183,50
14880,-0.96265,0.04834,-0.13892,6,47,183,50
14900,-0.97803,0.02173,-0.0671399999999999,6,47,183,50
14920,-0.97339,0.08667,-0.01489,6,47,183,50
14940,-0.96435,-0.0227,-0.07617,6,47,183,50
14960,-0.95264,0.0549299999999999,-0.06348,6,47,183,50
14980,-0.97461,-0.146,-0.02734,6,47,183,50
15000,-0.96631,-0.1084,-0.17822,6,47,183,50
15020,-0.95093,0.04419,-0.09619,6,47,183,50
15040,-0.92969,0.18921,0.15137,6,47,183,50
15060,-0.95679,-0.01904,-0.1084,6,47,183,50
15080,-0.9375,0.10083,-0.0671399999999999,6,47,183,50
15100,-0.90967,0.12305,0.1062,6,47,183,50
15120,-0.9751,-0.03638,-0.05151,6,47,183,50
15140,-0.9707,0.03638,0.04981,6,47,183,50
15160,-0.79785,0.5192899999999999,0.09863,6,47,183,50
15180,-0.94336,-0.14282,-0.1057099999999999,6,47,183,50
15200,-0.94019,0.1391599999999999,0.2146,6,47,183,50
15220,-0.96069,0.19092,0.12988,6,47,183,50
15240,-0.9563,-0.0957,-0.09985,6,47,183,50
15260,-0.948,0.15015,-0.04248,6,47,183,50
15280,-0.94751,0.00855,-0.21167,6,47,183,50
15300,-0.979,0.02515,0.1272,6,47,183,50
15320,-0.91504,-0.02368,-0.36768,6,47,183,50
15340,-0.95044,0.16577,0.1167,6,47,183,50
15360,-0.94336,-0.14282,-0.1057099999999999,6,47,183,50
15380,-0.96289,-0.10889,-0.12817,6,47,183,50
15400,-0.78442,0.53687,0.16138,6,47,183,50
15420,-0.92969,-0.13745,-0.27881,6,47,183,50
15440,-0.78442,0.53687,0.16138,6,47,183,50
15460,-0.95947,-0.23877,-0.25928,6,47,183,50
15480,-0.95264,0.02344,-0.13525,6,47,183,50
15500,-0.96362,-0.06567,-0.07715,6,47,183,50
15520,-0.95215,-0.13648,-0.04004,6,47,183,50
15540,-0.96997,0.09424,0.01294,6,47,183,50
15560,-0.90356,0.35034,0.18042,6,47,183,50
15580,-0.90991,0.03174,-0.29883,6,47,183,50
15600,-0.94507,-0.05884,-0.24194,6,47,183,50
15620,-0.91821,0.23315,0.1560099999999999,6,47,183,50
15640,-0.95947,-0.13184,-0.13379,6,47,183,50
15660,-0.96704,0.09521,-0.16675,6,47,183,50
15680,-0.95679,-0.00806,-0.0861799999999999,6,47,183,50
15700,-0.9585,0.09644,0.23145,6,47,183,50
15720,-1.0044,-0.12695,-0.25635,6,47,183,50
15740,-0.98413,0.03394,-0.04932,6,47,183,50
15760,-0.97583,-0.13721,-0.23096,6,47,183,50
15780,-0.90991,0.25732,0.15942,6,47,183,50
15800,-0.93628,0.02539,-0.1814,6,47,183,50
15820,-0.83105,0.44458,0.13574,6,47,183,50
15840,-0.93506,0.07007,-0.09448,6,47,183,50
15860,-0.8779299999999999,-0.09326,-0.33276,6,47,183,50
15880,-0.9104,0.08814,-0.13232,6,47,183,50
15900,-0.96289,-0.15552,-0.0957,6,47,183,50
15920,-0.95166,0.0481,-0.11743,6,47,183,50
15940,-0.95435,0.09033,-0.09009,6,47,183,50
15960,-0.93506,0.1145,-0.14722,6,47,183,50
15980,-0.7399899999999999,0.604,0.03979,6,47,183,50
16000,-0.8911100000000001,0.14648,0.10449,6,47,183,50
16020,-0.81494,0.48804,0.13745,6,47,183,50
16040,-0.93433,-0.1648,-0.1626,7,63,186,87
16060,-0.9397,-0.02979,-0.18091,7,63,186,87
16080,-0.96313,0.21655,0.1438,7,63,186,87
16100,-0.93115,0.03662,-0.05981,7,63,186,87
16120,-0.87134,0.39795,-0.05249,7,63,186,87
16140,-0.95898,0.07935,-0.04004,7,63,186,87
16160,-0.97241,-0.01953,-0.16333,7,63,186,87
16180,-0.9773,0.04004,-0.0571299999999999,7,63,186,87
16200,-0.90674,-0.12891,-0.23975,7,63,186,87
16220,-0.94238,0.09131,-0.10278,7,63,186,87
16240,-0.96777,0.04053,-0.09204,7,63,186,87
16260,-0.94824,0.11719,-0.14966,7,63,186,87
16280,-0.92749,-0.00708,-0.26563,7,63,186,87
16300,-0.8715799999999999,0.34814,0.15381,7,63,186,87
16320,-0.94653,-0.1425799999999999,-0.21533,7,63,186,87
16340,-0.96997,0.03149,-0.06421,7,63,186,87
16360,-0.91797,0.20947,0.12817,7,63,186,87
16380,-0.91846,-0.16846,-0.25,7,63,186,87
16400,-0.96289,0.05908,-0.1521,7,63,186,87
16420,-0.96045,0.12573,0.13135,7,63,186,87
16440,-0.94043,0.00293,-0.26587,7,63,186,87
16460,-0.8977,0.07422,-0.27979,7,63,186,87
16480,-0.96362,0.09424,-0.03711,7,63,186,87
16500,-0.96167,-0.12183,-0.11865,7,63,186,87
16520,-0.9519,0.06396,-0.04272,7,63,186,87
16540,-0.96631,0.04883,0.125,7,63,186,87
16560,-0.95679,0.00855,-0.08081,7,63,186,87
16580,-0.93994,0.10303,0.21558,7,63,186,87
16600,-0.96509,-0.09473,-0.1738299999999999,7,63,186,87
16620,-0.95825,0.06982,0.10889,7,63,186,87
16640,-0.97803,0.02856,-0.2019,7,63,186,87
16660,-0.94385,-0.0852,-0.17627,7,63,186,87
16680,-0.85767,0.00171,-0.0376,7,63,186,87
16700,-0.95654,-0.03467,-0.12573,7,63,186,87
16720,-1.0444,0.31592,0.25659,7,63,186,87
16740,-0.94995,0.0293,0.08423,7,63,186,87
16760,-0.95361,-0.11523,-0.00562,7,63,186,87
16780,-0.93042,0.17188,0.15161,7,63,186,87
16800,-0.92114,-0.06372,0.13648,7,63,186,87
16820,-0.96558,-0.01416,-0.0481,7,63,186,87
16840,-0.91357,0.18652,-0.26025,7,63,186,87
16860,-0.97461,-0.06616,-0.09912,7,63,186,87
16880,-0.95508,0.09961,-0.05151,7,63,186,87
16900,-0.96973,0.05054,0.12329,7,63,186,87
16920,-0.9707,0.04297,-0.05151,7,63,186,87
16940,-0.92822,0.20215,0.1789599999999999,7,63,186,87
16960,-0.96606,0.052,-0.08081,7,63,186,87
16980,-0.95215,-0.04443,-0.22119,7,63,186,87
17000,-0.8894,0.26343,0.15771,7,63,186,87
17020,-0.94458,-0.0769,-0.10474,7,63,186,87
17040,-0.95605,-0.0896,-0.14673,7,63,186,87
17060,-0.9397,0.1340299999999999,0.21997,7,63,186,87
17080,-1.0183,-0.17651,0.19409,7,63,186,87
17100,-0.92773,0.19336,0.14868,7,63,186,87
17120,-0.93799,-0.18286,-0.18066,7,63,186,87
17140,-0.95215,0.00879,-0.10547,7,63,186,87
17160,-0.9624,0.0083,-0.03272,7,63,186,87
17180,-0.96313,-0.03589,-0.0529799999999999,7,63,186,87
17200,-0.86182,0.32642,0.29443,7,63,186,87
17220,-0.96387,0.05322,-0.06274,7,63,186,87
17240,-0.97363,0.02441,0.01294,7,63,186,87
17260,-0.9773,0.06641,-0.12256,7,63,186,87
17280,-0.92456,0.19116,0.12085,7,63,186,87
17300,-0.96484,0.01978,0.10718,7,63,186,87
17320,-0.97388,0.00903,-0.09985,7,63,186,87
17340,-0.96411,0.06006,-0.08569,7,63,186,87
17360,-1.0105,0.0571299999999999,-0.07153,7,63,186,87
17380,-0.93213,0.14966,0.24683,7,63,186,87
17400,-0.97852,-0.00317,-0.26465,7,63,186,87
17420,-0.92236,-0.04102,-0.28931,7,63,186,87
17440,-0.94702,0.198,0.18433,7,63,186,87
17460,-0.91748,-0.03857,-0.24731,7,63,186,87
17480,-0.94336,0.17969,0.14966,7,63,186,87
17500,-0.95239,0.00562,-0.11157,7,63,186,87
17520,-0.77783,0.5422399999999999,0.16992,7,63,186,87
17540,-0.95337,0.10547,-0.06177,7,63,186,87
17560,-0.96606,0.11255,-0.0647,7,63,186,87
17580,-0.94287,0.13525,-0.14844,7,63,186,87
17600,-0.9646,-0.01856,-0.12598,7,63,186,87
17620,-0.9353,-0.03345,-0.1416,7,63,186,87
17640,-0.92725,0.32227,0.11328,7,63,186,87
17660,-0.96362,0.20825,0.00415,7,63,186,87
17680,-0.86377,0.37671,0.20972,7,63,186,87
17700,-0.96753,-0.0852,-0.06079,7,63,186,87
17720,-0.948,0.15845,0.09131,7,63,186,87
17740,-0.99341,0.09863,0.05225,7,63,186,87
17760,-1.0806,0.02319,-0.07007,7,63,186,87
17780,-0.9082,0.18506,0.17065,7,63,186,87
17800,-0.7998,0.56763,0.12305,7,63,186,87
17820,-0.95581,0.14941,0.24243,7,63,186,87
17840,-0.97217,-0.02564,-0.07593,7,63,186,87
17860,-0.9375,0.03467,0.05981,7,63,186,87
17880,-0.93555,-0.01148,-0.1438,7,63,186,87
17900,-0.9231,0.00928,-0.28027,7,63,186,87
17920,-0.9541,0.13696,0.1228,7,63,186,87
17940,-0.96948,0.00171,-0.07617,7,63,186,87
17960,-1.0027,-0.00732,0.03784,7,63,186,87
17980,-0.96191,0.01221,-0.09058,7,63,186,87
18000,-0.9707,-0.01611,-0.05151,7,63,186,87
18020,-0.96509,0.05078,0.10156,7,63,186,87
18040,-0.948,0.18652,0.0822799999999999,7,63,186,87
18060,-0.91577,0.0227,-0.1789599999999999,7,63,186,87
18080,-0.96313,0.0671399999999999,-0.1355,7,63,186,87
18100,-0.96435,-0.03003,-0.09717,7,63,186,87
18120,-0.9668,0.22339,0.0695799999999999,7,63,186,87
18140,-1.0322,-0.0564,-0.15527,7,63,186,87
18160,-0.9353,0.12109,0.09985,7,63,186,87
18180,-1.0588,-0.14307,-0.07837,7,63,186,87
18200,-0.96216,0.17163,0.11499,7,63,186,87
18220,-0.76953,0.5585899999999999,0.17432,7,63,186,87
18240,-0.93994,-0.11133,-0.1640599999999999,7,63,186,87
18260,-0.93066,0.21729,-0.06079,7,63,186,87
18280,-0.95752,-0.00098,-0.06177,7,63,186,87
18300,-0.93408,0.19336,0.15259,7,63,186,87
18320,-0.96802,-0.03296,-0.07666,7,63,186,87
18340,-0.94312,-0.12842,-0.14526,7,63,186,87
18360,-0.93701,0.0136699999999999,-0.16602,7,63,186,87
18380,-0.93774,-0.25952,-0.11987,7,63,186,87
18400,-0.87402,-0.15137,-0.271,7,63,186,87
18420,-0.94995,0.03467,-0.11792,7,63,186,87
18440,-0.93213,0.19824,-0.08032,7,63,186,87
18460,-0.8757299999999999,0.43335,0.17651,7,63,186,87
18480,-0.92969,-0.04883,-0.21631,7,63,186,87
18500,-0.94263,0.14282,0.15112,7,63,186,87
18520,-0.97388,0.00903,-0.09985,8,23,175,57
18540,-0.93042,0.1023,-0.13232,8,23,175,57
18560,-0.96606,-0.04443,-0.0979,8,23,175,57
18580,-0.90845,0.28662,0.20825,8,23,175,57
18600,-0.92236,0.11231,0.24072,8,23,175,57
18620,-0.95874,0.09644,-0.08447,8,23,175,57
18640,-0.84277,0.45972,0.14673,8,23,175,57
18660,-0.9519,0.14648,-0.02759,8,23,175,57
18680,-0.96118,-0.04199,-0.04907,8,23,175,57
18700,-0.9563,0.02368,-0.21069,8,23,175,57
18720,-0.97144,-0.07031,-0.00098,8,23,175,57
18740,-0.95117,0.12451,0.21265,8,23,175,57
18760,-0.96582,0.03125,-0.00366,8,23,175,57
18780,-0.96289,-0.01831,-0.09961,8,23,175,57
18800,-0.96606,0.0551799999999999,-0.14697,8,23,175,57
18820,-0.95923,-0.00903,-0.07715,8,23,175,57
18840,-0.94678,0.18091,-0.09399,8,23,175,57
18860,-0.97192,-0.03247,-0.08032,8,23,175,57
18880,-0.9956,0.21924,0.1333,8,23,175,57
18900,-0.94116,0.1423299999999999,0.22119,8,23,175,57
18920,-0.85962,0.36157,0.10645,8,23,175,57
18940,-0.90503,0.10132,-0.1709,8,23,175,57
18960,-0.95068,-0.09399,-0.09009,8,23,175,57
18980,-0.91626,0.22485,0.26489,8,23,175,57
19000,-0.93164,0.146,0.07007,8,23,175,57
19020,-0.94922,-0.0861799999999999,-0.20459,8,23,175,57
19040,-0.96606,-0.04712,-0.05249,8,23,175,57
19060,-0.95947,0.03247,-0.11548,8,23,175,57
19080,-0.97315,-0.0647,-0.12158,8,23,175,57
19100,-0.7912600000000001,0.5532199999999999,0.16846,8,23,175,57
19120,-0.96655,0.09888,0.09033,8,23,175,57
19140,-0.96875,-0.01904,-0.08374,8,23,175,57
19160,-0.95752,0.1311,-0.15356,8,23,175,57
19180,-0.96997,0.03516,0.0751899999999999,8,23,175,57
19200,-0.95044,0.05859,-0.09229,8,23,175,57
19220,-0.94238,0.32007,0.1499,8,23,175,57
19240,-0.95703,0.05689,-0.07349,8,23,175,57
19260,-1.0015,-0.11816,-0.177,8,23,175,57
19280,-0.97119,0.03589,0.06787,8,23,175,57
19300,-0.96313,-0.0712899999999999,-0.0551799999999999,8,23,175,57
19320,-0.94922,0.17773,0.1543,8,23,175,57
19340,-0.94727,0.24072,0.11621,8,23,175,57
19360,-0.92407,0.27393,0.17627,8,23,175,57
19380,-0.95093,0.05664,0.10059,8,23,175,57
19400,-0.96973,0.09692,0.15308,8,23,175,57
19420,-0.93677,0.18408,0.1477099999999999,8,23,175,57
19440,-1.0444,0.31592,0.25659,8,23,175,57
19460,-0.94873,0.08496,-0.0708,8,23,175,57
19480,-0.97437,-0.03564,-0.12451,8,23,175,57
19500,-0.98682,0.00342,-0.073,8,23,175,57
19520,-0.94898,-0.0227,-0.25488,8,23,175,57
19540,-0.97168,-0.01343,-0.04199,8,23,175,57
19560,-0.96704,0.08472,-0.08667,8,23,175,57
19580,-0.94409,0.04053,-0.22705,8,23,175,57
19600,-0.81079,0.51221,0.10352,8,23,175,57
19620,-0.9502,-0.05054,-0.13208,8,23,175,57
19640,-0.98413,-0.04932,-0.18408,8,23,175,57
19660,-0.97217,0.0376,0.14648,8,23,175,57
19680,-0.7338899999999999,0.57886,0.03711,8,23,175,57
19700,-0.94702,0.0156199999999999,-0.15039,8,23,175,57
19720,-0.8169,0.4873,0.12061,8,23,175,57
19740,-0.97022,0.09619,-0.17798,8,23,175,57
19760,-0.9375,0.04858,-0.19653,8,23,175,57
19780,-0.95947,-0.00366,-0.12158,8,23,175,57
19800,-0.9812,0.16235,-0.17407,8,23,175,57
19820,-0.99316,0.18066,0.12354,8,23,175,57
19840,-0.93237,-0.14917,-0.198,8,23,175,57
19860,-0.94336,0.1560099999999999,0.13379,8,23,175,57
19880,-0.95874,-0.16357,-0.24634,8,23,175,57
19900,-0.98852,0.0529799999999999,0.04712,8,23,175,57
19920,-0.95117,0.05347,0.10132,8,23,175,57
19940,-0.91528,-0.13062,-0.28418,8,23,175,57
19960,-0.96191,-0.10864,-0.11597,8,23,175,57
19980,-0.95239,0.17822,0.09009,8,23,175,57
20000,-0.95923,-0.12256,-0.00928,8,23,175,57
20020,-0.95947,-0.23877,-0.25928,8,23,175,57
20040,-0.93457,0.07105,-0.18188,8,23,175,57
20060,-0.95776,0.04492,-0.10767,8,23,175,57
20080,-0.95996,-0.06103,-0.15723,8,23,175,57
20100,-0.94751,0.20239,0.12305,8,23,175,57
20120,-0.91602,-0.12695,-0.29273,8,23,175,57
20140,-0.92871,-0.01123,-0.20898,8,23,175,57
20160,-0.93823,-0.04297,-0.12524,8,23,175,57
20180,-0.96606,0.0551799999999999,-0.14697,8,23,175,57
20200,-0.89795,0.1643099999999999,0.18359,8,23,175,57
20220,-0.9707,-0.0529799999999999,-0.04394,8,23,175,57
20240,-0.93848,0.07251,-0.1189,8,23,175,57
20260,-0.99268,0.34375,0.25977,8,23,175,57
20280,-0.96777,0.07056,-0.0686,8,23,175,57
20300,-0.94116,-0.03711,-0.16846,8,23,175,57
20320,-0.99487,-0.08106,-0.18481,8,23,175,57
20340,-0.93897,0.06543,-0.17651,8,23,175,57
20360,-0.93726,-0.18018,-0.16113,8,23,175,57
20380,-0.93164,0.19165,0.12134,8,23,175,57
20400,-0.9624,-0.10083,-0.11743,8,23,175,57
20420,-0.95337,-0.03052,-0.1792,8,23,175,57
20440,-0.9148,0.28711,0.20874,8,23,175,57
20460,-0.92529,-0.06885,-0.28735,8,23,175,57
20480,-0.94556,0.19702,0.198,8,23,175,57
20500,-0.95459,0.00342,-0.10205,8,23,175,57
20520,-0.95459,-0.03784,-0.18286,8,23,175,57
20540,-0.96313,0.0481,-0.1604,8,23,175,57
20560,-0.94946,-0.09351,-0.16162,8,23,175,57
20580,-0.96265,0.03857,0.09961,8,23,175,57
20600,-0.96997,0.05835,-0.09351,8,23,175,57
20620,-0.97534,0.03491,-0.08472,8,23,175,57
20640,-0.94312,-0.25635,-0.15698,8,23,175,57
20660,-0.96411,-0.0581,-0.0751899999999999,8,23,175,57
20680,-0.91602,-0.04492,-0.2583,8,23,175,57
20700,-0.90747,0.19067,-0.17822,8,23,175,57
20720,-0.95142,-0.01123,-0.07422,8,23,175,57
20740,-0.99048,0.20947,0.18481,8,23,175,57
20760,-0.95825,-0.0078099999999999,-0.06641,8,23,175,57
20780,-1.0564,0.02808,-0.15845,9,55,187,101
20800,-0.94629,-0.14063,-0.0778799999999999,9,55,187,101
20820,-0.95752,-0.02832,-0.12988,9,55,187,101
20840,-0.95776,-0.16821,-0.16724,9,55,187,101
20860,-0.96631,-0.03125,-0.05591,9,55,187,101
20880,-0.97144,0.00342,-0.07983,9,55,187,101
20900,-0.92993,0.20605,0.12866,9,55,187,101
20920,-0.97339,-0.0271,-0.04834,9,55,187,101
20940,-1.2324,0.104,-0.19238,9,55,187,101
20960,-0.90698,0.03613,-0.1652799999999999,9,55,187,101
20980,-0.94263,0.14282,0.15112,9,55,187,101
21000,-0.8225100000000001,0.47339,0.14941,9,55,187,101
21020,-0.96533,-0.0166,-0.05029,9,55,187,101
21040,-1.0789,0.02295,-0.10962,9,55,187,101
21060,-0.95239,-0.00806,-0.13965,9,55,187,101
21080,-0.9917,0.0354,-0.01929,9,55,187,101
21100,-0.8825700000000001,0.28516,0.21387,9,55,187,101
21120,-0.8859899999999999,0.0144,-0.21045,9,55,187,101
21140,-0.92602,-0.02441,-0.15283,9,55,187,101
21160,-0.95776,0.12134,-0.04981,9,55,187,101
21180,-0.93066,-0.04565,-0.10962,9,55,187,101
21200,-0.93774,-0.06103,-0.16089,9,55,187,101
21220,-0.94922,0.05542,-0.14477,9,55,187,101
21240,-0.93457,0.1330599999999999,0.20044,9,55,187,101
21260,-0.98413,0.05957,-0.03125,9,55,187,101
21280,-0.9751,-0.03638,-0.05151,9,55,187,101
21300,-0.98071,0.05542,0.09888,9,55,187,101
21320,-0.94678,0.18091,-0.09399,9,55,187,101
21340,-0.94507,0.21631,0.19116,9,55,187,101
21360,-0.95142,-0.0564,-0.08325,9,55,187,101
21380,-0.90259,0.24438,0.2002,9,55,187,101
21400,-0.97705,0.01685,-0.01269,9,55,187,101
21420,-0.96069,0.19482,-0.17505,9,55,187,101
21440,-0.95727,-0.03442,-0.17847,9,55,187,101
21460,-0.95459,-0.03589,-0.11646,9,55,187,101
21480,-0.97046,-0.05689,-0.09229,9,55,187,101
21500,-0.96435,-0.00342,-0.20264,9,55,187,101
21520,-0.94409,0.21802,0.15527,9,55,187,101
21540,-0.95679,-0.11939,-0.08081,9,55,187,101
21560,-0.93433,0.11621,-0.04639,9,55,187,101
21580,-0.94678,0.20435,-0.0529799999999999,9,55,187,101
21600,-0.98706,0.15796,0.11914,9,55,187,101
21620,-0.97217,-0.01978,-0.0564,9,55,187,101
21640,-0.95044,0.16577,0.1167,9,55,187,101
21660,-0.93677,0.17236,-0.16968,9,55,187,101
21680,-0.99194,0.01831,0.1330599999999999,9,55,187,101
21700,-0.95801,0.16992,0.10742,9,55,187,101
21720,-0.94043,-0.11841,-0.21021,9,55,187,101
21740,-0.96191,0.02393,0.02417,9,55,187,101
21760,-0.94287,0.12842,0.22949,9,55,187,101
21780,-0.90967,0.31494,0.1738299999999999,9,55,187,101
21800,-0.95727,-0.13696,-0.15674,9,55,187,101
21820,-0.96313,-0.0581,-0.10132,9,55,187,101
21840,-0.94653,0.15869,0.09473,9,55,187,101
21860,-0.98242,-0.02173,-0.09497,9,55,187,101
21880,-0.95581,-0.07105,-0.1831,9,55,187,101
21900,-0.96313,0.04688,-0.02612,9,55,187,101
21920,-0.92285,0.1228,-0.07349,9,55,187,101
21940,-0.96216,0.18677,-0.19971,9,55,187,101
21960,-0.96899,-0.0437,-0.0751899999999999,9,55,187,101
21980,-0.92725,-0.14185,-0.32861,9,55,187,101
22000,-0.97974,0.00903,-0.06079,9,55,187,101
22020,-0.927,0.23633,0.10449,9,55,187,101
22040,-0.96875,-0.07153,-0.03882,9,55,187,101
22060,-0.96582,-0.08594,-0.05859,9,55,187,101
22080,-0.89722,0.1814,0.1342799999999999,9,55,187,101
22100,-0.96728,-0.1001,-0.08374,9,55,187,101
22120,-0.93286,-0.16309,-0.0852,9,55,187,101
22140,-0.93603,0.10474,-0.10498,9,55,187,101
22160,-0.95215,0.07251,0.03735,9,55,187,101
22180,-0.94605,0.15649,0.1391599999999999,9,55,187,101
22200,-0.92017,0.08154,0.07935,9,55,187,101
22220,-0.8147,0.51807,0.12183,9,55,187,101
22240,-0.90991,0.1640599999999999,0.14453,9,55,187,101
22260,-0.98315,0.13672,0.10352,9,55,187,101
22280,-0.97803,-0.00659,-0.12793,9,55,187,101
22300,-0.8808600000000001,0.16821,0.16626,9,55,187,101
22320,-0.94067,0.09741,-0.06226,9,55,187,101
22340,-0.96899,0.01929,-0.12671,9,55,187,101
22360,-0.8850100000000001,0.2289999999999999,-0.16748,9,55,187,101
22380,-0.948,-0.11548,-0.09936,9,55,187,101
22400,-0.95923,0.125,0.05151,9,55,187,101
22420,-0.67969,-0.25098,-0.38403,9,55,187,101
22440,-0.96411,-0.15918,-0.01099,9,55,187,101
22460,-0.97339,0.11987,-0.07715,9,55,187,101
22480,-0.77588,0.55933,0.16675,9,55,187,101
22500,-0.91113,-0.07983,-0.24146,9,55,187,101
22520,-0.95874,0.05859,-0.08081,9,55,187,101
22540,-0.97022,-0.09229,-0.0737299999999999,9,55,187,101
22560,-0.9668,0.0415,0.10986,9,55,187,101
22580,-0.8986799999999999,0.23315,0.21143,9,55,187,101
22600,-0.97583,-0.12158,-0.11475,9,55,187,101
22620,-0.96435,-0.00098,-0.24048,9,55,187,101
22640,-0.93433,0.11621,-0.04639,9,55,187,101
22660,-0.94849,-0.23169,-0.1474599999999999,9,55,187,101
22680,-0.97241,-0.17212,-0.04272,9,55,187,101
22700,-0.9148,0.2251,-0.11353,9,55,187,101
22720,-0.95972,-0.06519,-0.12134,9,55,187,101
22740,-0.95068,0.13599,0.26343,9,55,187,101
22760,-0.93897,0.18994,0.15796,9,55,187,101
22780,-0.94873,0.06299,-0.17676,9,55,187,101
22800,-0.96533,0.12695,0.10352,9,55,187,101
22820,-0.92236,0.11231,0.24072,9,55,187,101
22840,-0.95996,0.26196,0.15918,9,55,187,101
22860,-0.96582,-0.04394,-0.04712,9,55,187,101
22880,-0.96069,-0.0542,-0.07495,9,55,187,101
22900,-0.96338,0.08032,0.15869,9,55,187,101
22920,-0.94605,0.03223,-0.2019,9,55,187,101
22940,-0.95947,-0.04834,-0.12866,9,55,187,101
22960,-0.95679,0.03662,0.1228,9,55,187,101
22980,-0.97388,-0.0249,-0.03467,9,55,187,101
23000,-0.93799,0.18115,0.13745,9,55,187,101
23020,-0.95264,-0.10425,-0.21094,9,55,187,101
23040,-0.7387699999999999,0.53027,-0.00269,9,55,187,101
23060,-0.90845,0.02954,-0.25586,9,55,187,101
23080,-0.96973,0.12817,0.05151,9,55,187,101
23100,-0.95727,-0.04858,-0.07764,9,55,187,101
23120,-0.92114,0.03662,-0.1425799999999999,9,55,187,101
23140,-0.92676,0.16968,-0.2229,9,55,187,101
23160,-0.95776,0.11816,-0.10156,9,55,187,101
23180,-0.92773,-0.06641,-0.24219,9,55,187,101
23200,-0.94116,-0.03882,-0.16968,9,55,187,101
23220,-0.95654,0.12817,-0.04956,9,55,187,101
23240,-0.98145,-0.1330599999999999,-0.07178,10,23,177,75
23260,-0.96191,-0.04883,-0.04541,10,23,177,75
23280,-0.96948,-0.03198,-0.05347,10,23,177,75
23300,-0.96411,-0.04272,-0.0874,10,23,177,75
23320,-0.95776,-0.02148,-0.05322,10,23,177,75
23340,-0.9353,-0.01611,-0.12964,10,23,177,75
23360,-0.91846,0.18408,-0.07739,10,23,177,75
23380,-0.94458,0.1499,0.09058,10,23,177,75
23400,-1.0212,-0.00098,-0.26538,10,23,177,75
23420,-0.95776,0.03345,-0.11646,10,23,177,75
23440,-0.97363,-0.0188,-0.07593,10,23,177,75
23460,-0.8024899999999999,0.49976,0.12427,10,23,177,75
23480,-0.94458,-0.0769,-0.10474,10,23,177,75
23500,-0.90552,-0.20898,-0.31152,10,23,177,75
23520,-0.97461,0.03272,0.06592,10,23,177,75
23540,-0.94336,-0.0542,-0.19165,10,23,177,75
23560,-0.95801,-0.05078,-0.19922,10,23,177,75
23580,-0.94849,0.20532,0.14526,10,23,177,75
23600,-0.8554700000000001,0.41895,0.16724,10,23,177,75
23620,-0.95727,0.04492,-0.0979,10,23,177,75
23640,-0.96826,0.03638,0.11572,10,23,177,75
23660,-0.96948,0.0671399999999999,0.17017,10,23,177,75
23680,-0.95215,-0.02515,0.07275,10,23,177,75
23700,-0.95215,0.07251,0.03735,10,23,177,75
23720,-0.97241,-0.0249,-0.05835,10,23,177,75
23740,-0.948,0.125,0.06274,10,23,177,75
23760,-0.97266,-0.22778,-0.17285,10,23,177,75
23780,-0.94287,0.11499,0.0737299999999999,10,23,177,75
23800,-0.94043,0.1831,0.14111,10,23,177,75
23820,-0.94238,0.00586,-0.04272,10,23,177,75
23840,-0.92236,-0.1377,-0.25806,10,23,177,75
23860,-0.96631,-0.06543,-0.09839,10,23,177,75
23880,-0.8710899999999999,-0.03955,-0.21729,10,23,177,75
23900,-0.92261,-0.23023,-0.12671,10,23,177,75
23920,-0.96338,0.06274,0.08691,10,23,177,75
23940,-0.95093,0.35962,0.09106,10,23,177,75
23960,-0.8696299999999999,0.38403,0.1709,10,23,177,75
23980,-0.94702,-0.16187,-0.18555,10,23,177,75
24000,-0.92822,0.2832,0.19531,10,23,177,75
24020,-0.91333,-0.01856,-0.26563,10,23,177,75
24040,-1.0063,0.02002,-0.03223,10,23,177,75
24060,-0.98779,0.05566,-0.06543,10,23,177,75
24080,-0.97168,-0.07031,-0.08106,10,23,177,75
24100,-0.98023,0.04224,0.12695,10,23,177,75
24120,-0.9458,-0.05981,-0.09326,10,23,177,75
24140,-0.7915,0.53687,0.16162,10,23,177,75
24160,-0.93164,0.28857,0.18408,10,23,177,75
24180,-0.90356,-0.27661,-0.37183,10,23,177,75
24200,-0.97022,0.0625,0.11816,10,23,177,75
24220,-0.98389,-0.13355,-0.0105,10,23,177,75
24240,-0.9956,-0.00195,-0.00562,10,23,177,75
24260,-0.95386,0.05395,0.09424,10,23,177,75
24280,-0.8632799999999999,0.48438,0.1814,10,23,177,75
24300,-0.89087,-0.01611,-0.1655299999999999,10,23,177,75
24320,-0.927,0.03345,0.24316,10,23,177,75
24340,-0.95508,0.00244,-0.06079,10,23,177,75
24360,-0.96802,0.02783,-0.09692,10,23,177,75
24380,-1.03,0.03857,0.01489,10,23,177,75
24400,-0.94019,-0.0083,-0.07642,10,23,177,75
24420,-0.9187,0.22974,0.16992,10,23,177,75
24440,-0.88818,0.37939,0.0861799999999999,10,23,177,75
24460,-0.96826,-0.1665,-0.18677,10,23,177,75
24480,-0.79395,0.53247,0.18433,10,23,177,75
24500,-0.92114,0.24805,0.13867,10,23,177,75
24520,-0.94971,0.11792,-0.1355,10,23,177,75
24540,-0.91797,0.20947,0.12817,10,23,177,75
24560,-0.93188,-0.21167,-0.24512,10,23,177,75
24580,-0.92773,0.07153,-0.10083,10,23,177,75
24600,-0.98267,0.03369,-0.0671399999999999,10,23,177,75
24620,-0.9314,0.18579,-0.0022,10,23,177,75
24640,-0.92944,0.18774,0.10864,10,23,177,75
24660,-0.98901,0.00146,-0.06763,10,23,177,75
24680,-0.90747,-0.14844,-0.24487,10,23,177,75
24700,-0.94116,0.19458,0.10986,10,23,177,75
24720,-0.94556,-0.19482,-0.06665,10,23,177,75
24740,-0.76977,0.43628,0.06543,10,23,177,75
24760,-0.89233,0.16504,0.06323,10,23,177,75
24780,-0.95215,0.02417,-0.04883,10,23,177,75
24800,-0.9602,0.07959,-0.08935,10,23,177,75
24820,-0.97754,0.15283,0.12207,10,23,177,75
24840,-0.90185,0.32715,0.20264,10,23,177,75
24860,-1.0085,-0.15967,-0.10815,10,23,177,75
24880,-0.92676,-0.00708,-0.36792,10,23,177,75
24900,-0.8981899999999999,-0.02368,-0.2915,10,23,177,75
24920,-0.94336,0.13379,0.20996,10,23,177,75
24940,-0.9458,0.04663,0.13355,10,23,177,75
24960,-0.98291,0.17456,-0.03662,10,23,177,75
24980,-0.96777,-0.08594,-0.03272,10,23,177,75
25000,-0.96826,-0.05908,-0.08081,10,23,177,75
25020,-0.98926,0.1477099999999999,0.10107,10,23,177,75
25040,-0.95532,-0.20044,-0.11792,10,23,177,75
25060,-0.9624,-0.03369,-0.03467,10,23,177,75
25080,-0.95996,-0.0686,-0.08862,10,23,177,75
25100,-0.92725,0.22192,0.15845,10,23,177,75
25120,-0.95044,0.25317,0.14111,10,23,177,75
25140,-0.90796,0.2312,0.1875,10,23,177,75
25160,-0.93945,-0.07178,-0.18359,10,23,177,75
25180,-0.97803,0.02856,-0.2019,10,23,177,75
25200,-0.95898,-0.0061,-0.0737299999999999,10,23,177,75
25220,-0.96582,-0.01929,-0.125,10,23,177,75
25240,-0.94482,0.0571299999999999,-0.15015,10,23,177,75
25260,-0.93848,-0.10938,-0.2727,10,23,177,75
25280,-0.96826,0.07324,-0.06494,10,23,177,75
25300,-0.8845200000000001,0.34106,0.25098,10,23,177,75
25320,-0.9458,0.1789599999999999,0.13135,10,23,177,75
25340,-0.96362,0.0852,-0.08325,10,23,177,75
25360,-0.93237,-0.04175,-0.26563,10,23,177,75
25380,-0.94507,0.11353,-0.15942,10,23,177,75
25400,-0.97632,0.00098,-0.08594,10,23,177,75
25420,-0.94482,0.03076,0.18335,10,23,177,75
25440,-0.96533,0.12695,0.10352,10,23,177,75
25460,-0.96875,-0.02393,-0.07568,10,23,177,75
25480,-0.93457,0.05542,0.25513,10,23,177,75
25500,-0.96484,0.00928,-0.10156,10,23,177,75
25520,-0.85205,0.22974,-0.28735,10,23,177,75
25540,-0.94824,0.0791,-0.11133,10,23,177,75
25560,-0.96216,0.13452,0.11597,10,23,177,75
25580,-0.9707,0.10107,-0.0791,10,23,177,75
25600,-0.94458,0.06299,-0.20654,10,23,177,75
25620,-0.94605,0.1936,0.15015,10,23,177,75
25640,-0.96362,-0.03442,-0.06274,10,23,177,75
25660,-0.85059,0.45874,0.16309,10,23,177,75
25680,-0.8486299999999999,0.47266,0.16748,10,23,177,75
25700,-0.96728,-0.00366,-0.05762,10,23,177,75
25720,-0.94507,0.16724,0.1330599999999999,10,23,177,75
25740,-0.87598,-0.01465,-0.19946,10,23,177,75
25760,-0.96631,-0.1084,-0.17822,10,23,177,75
25780,-0.97315,-0.04321,-0.06128,11,26,169,94
25800,-0.9003899999999999,0.21533,0.16602,11,26,169,94
25820,-0.97266,0.11377,0.11523,11,26,169,94
25840,-0.91968,0.16626,0.03833,11,26,169,94
25860,-0.97339,-0.03589,-0.04932,11,26,169,94
25880,-0.94653,0.17676,0.12329,11,26,169,94
25900,-0.8493700000000001,0.47021,0.13696,11,26,169,94
25920,-0.96338,-0.0376,-0.01123,11,26,169,94
25940,-0.94702,0.18896,0.08984,11,26,169,94
25960,-0.9419,0.21118,0.12061,11,26,169,94
25980,-0.98999,0.06787,-0.00195,11,26,169,94
26000,-0.92017,-0.11548,-0.1272,11,26,169,94
26020,-0.95264,0.04102,-0.07227,11,26,169,94
26040,-0.98218,0.05615,0.13623,11,26,169,94
26060,-0.96167,-0.01978,-0.06641,11,26,169,94
26080,-0.97022,0.03686,-0.04956,11,26,169,94
26100,-0.8408200000000001,0.30493,0.19434,11,26,169,94
26120,-0.96435,-0.00098,-0.24048,11,26,169,94
26140,-0.96655,0.04394,0.11572,11,26,169,94
26160,-0.95947,-0.01489,-0.06763,11,26,169,94
26180,-0.98071,0.03369,0.0044,11,26,169,94
26200,-0.91235,0.34106,0.19849,11,26,169,94
26220,-0.94556,0.0022,-0.0861799999999999,11,26,169,94
26240,-0.93799,0.13135,0.21655,11,26,169,94
26260,-0.9104,-0.073,-0.33984,11,26,169,94
26280,-0.97119,0.04224,-0.0437,11,26,169,94
26300,-0.92456,0.17847,0.21362,11,26,169,94
26320,-0.95996,-0.01831,-0.1023,11,26,169,94
26340,-0.94336,0.19116,-0.1560099999999999,11,26,169,94
26360,-0.8891600000000001,0.27197,0.12451,11,26,169,94
26380,-0.95508,0.03076,-0.12964,11,26,169,94
26400,-0.96802,-0.11572,-0.07397,11,26,169,94
26420,-0.94727,-0.00513,0.03491,11,26,169,94
26440,-0.97095,-0.01636,-0.13989,11,26,169,94
26460,-0.88745,0.11719,-0.2251,11,26,169,94
26480,-0.92285,0.14819,0.19605,11,26,169,94
26500,-0.9978,-0.10376,0.09521,11,26,169,94
26520,-0.94263,0.18384,0.13965,11,26,169,94
26540,-0.98071,-0.01929,-0.06763,11,26,169,94
26560,-0.92944,0.17261,0.1853,11,26,169,94
26580,-0.95801,0.13696,0.19067,11,26,169,94
26600,-0.95337,-0.05322,-0.1377,11,26,169,94
26620,-0.9729,-0.10327,-0.0791,11,26,169,94
26640,-0.96411,0.0156199999999999,-0.02051,11,26,169,94
26660,-0.93457,-0.29785,-0.08154,11,26,169,94
26680,-0.93555,-0.04956,-0.14453,11,26,169,94
26700,-0.93042,0.0737299999999999,0.25049,11,26,169,94
26720,-0.89966,0.26563,0.20923,11,26,169,94
26740,-0.97363,-0.16162,-0.1228,11,26,169,94
26760,-0.94263,0.11035,-0.00244,11,26,169,94
26780,-0.96728,0.08765,0.01489,11,26,169,94
26800,-0.95727,0.13232,0.0188,11,26,169,94
26820,-0.96606,-0.08276,-0.09815,11,26,169,94
26840,-0.89185,-0.25122,-0.28052,11,26,169,94
26860,-0.92554,0.05689,-0.0144,11,26,169,94
26880,-0.94287,0.12915,-0.10132,11,26,169,94
26900,-0.97266,-0.0625,-0.07324,11,26,169,94
26920,-1.002,0.16846,0.22168,11,26,169,94
26940,-1.0015,-0.11816,-0.177,11,26,169,94
26960,-0.94531,0.06299,-0.06811,11,26,169,94
26980,-0.96484,0.16309,0.10962,11,26,169,94
27000,-0.7338899999999999,0.57886,0.03711,11,26,169,94
27020,-0.94898,0.00391,-0.13208,11,26,169,94
27040,-0.9353,0.17065,-0.15039,11,26,169,94
27060,-0.90088,0.33447,0.21021,11,26,169,94
27080,-0.95605,0.04688,0.15967,11,26,169,94
27100,-0.9187,0.25732,-0.11157,11,26,169,94
27120,-0.9939,-0.05737,-0.07642,11,26,169,94
27140,-0.90674,0.26001,-0.00049,11,26,169,94
27160,-0.93408,0.0166,-0.1001,11,26,169,94
27180,-0.96191,-0.0139199999999999,-0.08984,11,26,169,94
27200,-0.96899,0.11255,0.1499,11,26,169,94
27220,-0.94409,0.1557599999999999,-0.03906,11,26,169,94
27240,-0.95264,0.15479,0.09155,11,26,169,94
27260,-0.94458,-0.01782,-0.1391599999999999,11,26,169,94
27280,-1.0505,-0.05469,-0.11084,11,26,169,94
27300,-0.91968,0.1626,0.18359,11,26,169,94
27320,-0.95313,0.1787099999999999,0.17236,11,26,169,94
27340,-0.9419,0.12793,0.21118,11,26,169,94
27360,-0.96289,-0.01831,-0.09961,11,26,169,94
27380,-0.95264,0.04102,-0.07227,11,26,169,94
27400,-0.94629,-0.03198,-0.17969,11,26,169,94
27420,-0.7912600000000001,0.5532199999999999,0.16846,11,26,169,94
27440,-0.9519,-0.05225,-0.14648,11,26,169,94
27460,-0.96899,-0.05981,-0.04761,11,26,169,94
27480,-0.97412,0.04541,-0.06421,11,26,169,94
27500,-0.94238,-0.16821,-0.18286,11,26,169,94
27520,-1.0325,0.05689,-0.04614,11,26,169,94
27540,-0.94067,0.16357,0.12427,11,26,169,94
27560,-0.7207,0.5524899999999999,0.19458,11,26,169,94
27580,-0.9707,-0.00269,-0.13794,11,26,169,94
27600,-0.96582,0.08716,0.1499,11,26,169,94
27620,-0.96313,-0.16309,-0.0271,11,26,169,94
27640,-0.90381,0.23193,-0.21021,11,26,169,94
27660,-0.95313,-0.03564,-0.09497,11,26,169,94
27680,-0.94629,0.15991,-0.0529799999999999,11,26,169,94
27700,-0.97046,-0.05786,-0.0822799999999999,11,26,169,94
27720,-0.96118,-0.02441,-0.0778799999999999,11,26,169,94
27740,-0.95605,-0.0896,-0.14673,11,26,169,94
27760,-0.97363,-0.06811,-0.08179,11,26,169,94
27780,-0.8737799999999999,-0.2666,-0.375,11,26,169,94
27800,-1.0076,0.16333,-0.08179,11,26,169,94
27820,-0.97339,0.2124,0.21704,11,26,169,94
27840,-0.95068,0.09668,0.20459,11,26,169,94
27860,-0.93555,0.17578,-0.11816,11,26,169,94
27880,-0.9646,0.03418,0.08569,11,26,169,94
27900,-0.79004,0.49585,0.11914,11,26,169,94
27920,-0.93433,0.1853,-0.03735,11,26,169,94
27940,-0.96704,0.08472,-0.08667,11,26,169,94
27960,-0.96265,-0.00098,-0.09106,11,26,169,94
27980,-0.8742700000000001,0.34863,0.23438,11,26,169,94
28000,-0.96875,-0.06274,-0.10132,11,26,169,94
28020,-1.0742,-0.12573,-0.12256,11,26,169,94
28040,-0.95605,-0.11646,-0.13574,11,26,169,94
28060,-0.92139,0.20264,0.13135,11,26,169,94
28080,-0.94238,-0.13501,-0.15259,11,26,169,94
28100,-0.99365,0.00146,-0.11963,11,26,169,94
28120,-0.97998,0.10742,-0.05591,11,26,169,94
28140,-0.96704,0.01831,-0.07935,11,26,169,94
28160,-0.78149,0.54199,0.16943,11,26,169,94
28180,-0.92163,0.08008,-0.11572,11,26,169,94
28200,-0.94653,0.15869,0.09473,11,26,169,94
28220,-0.7387699999999999,0.53027,-0.00269,11,26,169,94
28240,-0.92871,0.2146,0.16943,11,26,169,94
28260,-0.97388,0.00903,-0.09985,11,26,169,94
28280,-0.92847,0.23877,0.26245,11,26,169,94
28300,-0.93897,-0.07251,-0.15503,11,26,169,94
28320,-0.94971,0.01904,-0.11792,11,26,169,94
28340,-0.95801,0.16992,0.10742,11,26,169,94
28360,-0.8466799999999999,0.42432,0.15674,11,26,169,94
28380,-0.93897,0.13184,0.19238,11,26,169,94
28400,-1.0066,0.14307,-0.17505,11,26,169,94
28420,-0.96411,-0.02417,-0.1787099999999999,11,26,169,94
28440,-0.97144,-0.12769,-0.12817,12,64,172,75
28460,-0.96704,-0.03003,-0.06226,12,64,172,75
28480,-0.94849,0.19775,0.15185,12,64,172,75
28500,-0.97803,0.0835,0.14917,12,64,172,75
28520,-0.81177,0.28833,0.04126,12,64,172,75
28540,-0.84546,0.42212,0.12793,12,64,172,75
28560,-0.97095,-0.0136699999999999,-0.0861799999999999,12,64,172,75
28580,-0.79395,0.53247,0.18433,12,64,172,75
28600,-0.94312,0.0459,-0.22949,12,64,172,75
28620,-0.93359,0.16089,0.1438,12,64,172,75
28640,-0.93603,-0.11475,-0.19824,12,64,172,75
28660,-0.95508,-0.12866,-0.11304,12,64,172,75
28680,-0.84399,0.08496,-0.0712899999999999,12,64,172,75
28700,-0.93115,-0.09985,-0.14063,12,64,172,75
28720,-0.91821,0.21216,0.10474,12,64,172,75
28740,-0.95654,-0.11133,-0.1438,12,64,172,75
28760,-0.90112,-0.07056,-0.19995,12,64,172,75
28780,-0.99536,-0.00317,-0.02295,12,64,172,75
28800,-0.91821,0.24805,-0.07275,12,64,172,75
28820,-0.95264,0.15332,0.10034,12,64,172,75
28840,-0.95654,-0.1423299999999999,-0.05371,12,64,172,75
28860,-0.94898,0.02564,-0.12671,12,64,172,75
28880,-0.93677,0.17285,0.11914,12,64,172,75
28900,-0.94287,-0.13867,-0.15552,12,64,172,75
28920,-0.96851,0.00464,0.09082,12,64,172,75
28940,-0.94727,0.24072,0.11621,12,64,172,75
28960,-1.0879,-0.01245,-0.0549299999999999,12,64,172,75
28980,-0.98169,0.05591,0.11597,12,64,172,75
29000,-0.96069,-0.00757,-0.09204,12,64,172,75
29020,-0.96216,-0.19434,-0.14502,12,64,172,75
29040,-0.8808600000000001,-0.07178,-0.13208,12,64,172,75
29060,-0.92212,-0.10254,-0.08569,12,64,172,75
29080,-0.97583,-0.02441,-0.05957,12,64,172,75
29100,-0.8537600000000001,-0.28296,-0.35889,12,64,172,75
29120,-0.96313,0.04321,-0.14526,12,64,172,75
29140,-0.92554,0.12866,0.20386,12,64,172,75
29160,-0.95313,-0.02734,0.04028,12,64,172,75
29180,-0.96435,-0.0708,-0.0481,12,64,172,75
29200,-0.93579,0.32202,0.0549299999999999,12,64,172,75
29220,-0.927,0.23633,0.10449,12,64,172,75
29240,-0.93994,0.1626,-0.1425799999999999,12,64,172,75
29260,-0.95825,0.1340299999999999,-0.06592,12,64,172,75
29280,-0.96143,0.14307,0.00855,12,64,172,75
29300,-0.93066,0.20947,0.1059599999999999,12,64,172,75
29320,-0.95898,0.07935,-0.04004,12,64,172,75
29340,-0.91333,0.03369,-0.25024,12,64,172,75
29360,-0.8891600000000001,0.27197,0.12451,12,64,172,75
29380,-0.93286,0.14502,0.0564,12,64,172,75
29400,-0.93042,0.11108,-0.07642,12,64,172,75
29420,-0.97217,-0.06274,-0.04199,12,64,172,75
29440,-0.95264,0.07227,-0.0769,12,64,172,75
29460,-0.94971,-0.14697,-0.26904,12,64,172,75
29480,-0.87866,0.34766,0.15674,12,64,172,75
29500,-0.93506,0.18042,0.15381,12,64,172,75
29520,-0.94141,0.14063,0.20752,12,64,172,75
29540,-0.97705,0.03027,0.12402,12,64,172,75
29560,-0.9519,0.16162,0.08887,12,64,172,75
29580,-0.8859899999999999,0.33716,0.00952,12,64,172,75
29600,-0.95483,-0.06519,-0.08423,12,64,172,75
29620,-0.96313,0.0481,-0.1604,12,64,172,75
29640,-0.8742700000000001,0.35767,0.18262,12,64,172,75
29660,-0.96118,0.05078,0.18701,12,64,172,75
29680,-0.9148,0.25903,-0.09253,12,64,172,75
29700,-0.96289,-0.14063,-0.07471,12,64,172,75
29720,-0.94898,-0.0354,-0.198,12,64,172,75
29740,-0.96558,-0.06934,-0.32715,12,64,172,75
29760,-1.041,0.02539,-0.0527299999999999,12,64,172,75
29780,-0.98438,0.28174,0.09326,12,64,172,75
29800,-0.92285,0.1228,-0.07349,12,64,172,75
29820,-0.96875,-0.06274,-0.10132,12,64,172,75
29840,-1.0295,0.09277,-0.07349,12,64,172,75
29860,-0.94385,0.22681,0.20703,12,64,172,75
29880,-0.98462,0.01807,-0.12964,12,64,172,75
29900,-0.97217,0.0603,0.08032,12,64,172,75
29920,-0.96338,-0.02295,-0.15088,12,64,172,75
29940,-0.93872,-0.2146,-0.27881,12,64,172,75
29960,-0.98926,-0.09399,-0.16357,12,64,172,75
29980,-0.95435,-0.01856,-0.09961,12,64,172,75
30000,-0.9502,0.1919,0.10327,12,64,172,75
30020,-0.9668,0.1328099999999999,-0.12964,12,64,172,75
30040,-0.95923,-0.1355,-0.05347,12,64,172,75
30060,-0.94287,0.04614,-0.12354,12,64,172,75
30080,-0.92651,0.14307,0.12573,12,64,172,75
30100,-0.9043,0.29248,0.20679,12,64,172,75
30120,-0.91528,-0.13062,-0.28418,12,64,172,75
30140,-0.8649899999999999,0.11914,0.22974,12,64,172,75
30160,-0.77637,0.5485800000000001,0.1023,12,64,172,75
30180,-0.94263,-0.00952,-0.06226,12,64,172,75
30200,-0.91333,-0.01856,-0.26563,12,64,172,75
30220,-0.95435,-0.04248,-0.08935,12,64,172,75
30240,-0.97437,0.08691,0.05859,12,64,172,75
30260,-0.95386,0.0896,-0.0852,12,64,172,75
30280,-0.96435,0.01318,0.073,12,64,172,75
30300,-0.96631,0.00977,-0.06055,12,64,172,75
30320,-1.0063,0.1735799999999999,-0.13379,12,64,172,75
30340,-0.95972,-0.03272,-0.15674,12,64,172,75
30360,-0.94702,0.0156199999999999,-0.15039,12,64,172,75
30380,-0.97461,0.02954,0.0625,12,64,172,75
30400,-0.94556,0.19702,0.198,12,64,172,75
30420,-0.85693,0.37744,0.1342799999999999,12,64,172,75
30440,-0.92554,0.20142,-0.15942,12,64,172,75
30460,-0.9419,0.06323,-0.13574,12,64,172,75
30480,-0.96631,-0.03223,-0.11377,12,64,172,75
30500,-0.8547399999999999,0.44434,0.13208,12,64,172,75
30520,-0.96997,-0.11255,0.02246,12,64,172,75
30540,-0.9646,-0.03149,-0.0778799999999999,12,64,172,75
30560,-0.96655,0.01733,-0.06982,12,64,172,75
30580,-0.96606,0.03174,-0.10962,12,64,172,75
30600,-0.96313,0.02197,-0.06885,12,64,172,75
30620,-0.95386,-0.04443,-0.11987,12,64,172,75
30640,-0.97705,0.05249,0.10791,12,64,172,75
30660,-0.96143,0.02539,-0.14966,12,64,172,75
30680,-0.95386,0.11035,-0.073,12,64,172,75
30700,-0.90283,-0.1477099999999999,-0.16504,12,64,172,75
30720,-0.92407,0.25049,0.15332,12,64,172,75
30740,-0.93701,0.0083,-0.04761,12,64,172,75
30760,-0.97705,0.03955,0.15161,12,64,172,75
30780,-0.87256,0.32178,0.29883,12,64,172,75
30800,-0.96045,-0.0105,-0.11279,12,64,172,75
30820,-0.78442,0.53687,0.16138,12,64,172,75
30840,-0.93921,0.21265,0.11621,12,64,172,75
30860,-0.96191,-0.04077,-0.0791,12,64,172,75
30880,-0.9458,0.04663,0.13355,12,64,172,75
30900,-0.94556,-0.19482,-0.06665,12,64,172,75
30920,-0.96924,-0.02515,-0.04932,12,64,172,75
30940,-0.95093,-0.0459,-0.18384,12,64,172,75
30960,-0.92554,0.12866,0.20386,12,64,172,75
30980,-0.94482,0.01269,-0.09155,12,64,172,75
31000,-0.98267,-0.02979,-0.03955,12,64,172,75
31020,-0.95215,0.20508,0.1474599999999999,12,64,172,75
31040,-0.95483,0.10474,-0.03247,12,64,172,75
31060,-0.93359,0.15161,0.14795,12,64,172,75
31080,-0.92358,0.07837,0.12671,12,64,172,75
31100,-0.93042,0.17188,0.15161,12,64,172,75
31120,-0.96313,-0.01318,-0.07202,12,64,172,75
31140,-0.96606,-0.05591,-0.05054,12,64,172,75
31160,-0.8383799999999999,0.4479999999999999,0.15405,12,64,172,75
31180,-0.96191,-0.02637,-0.05786,12,64,172,75
31200,-0.96509,-0.01465,-0.05908,13,43,183,104
31220,-0.97119,-0.03735,-0.03662,13,43,183,104
31240,-0.95557,0.09033,-0.14697,13,43,183,104
31260,-0.94898,0.04688,-0.06519,13,43,183,104
31280,-0.84155,0.4397,0.14453,13,43,183,104
31300,-0.94824,0.12964,0.18188,13,43,183,104
31320,-0.98633,-0.02148,0.00415,13,43,183,104
31340,-0.94751,0.00293,-0.18701,13,43,183,104
31360,-0.8418,0.44507,0.12134,13,43,183,104
31380,-0.96533,-0.0249,-0.06616,13,43,183,104
31400,-0.97168,-0.20435,-0.1425799999999999,13,43,183,104
31420,-0.97803,0.02417,-0.13574,13,43,183,104
31440,-0.9624,-0.10156,-0.08838,13,43,183,104
31460,-0.79443,0.53857,0.13574,13,43,183,104
31480,-0.95044,0.08594,0.17163,13,43,183,104
31500,-0.948,-0.04272,-0.09473,13,43,183,104
31520,-0.99072,0.13086,0.26831,13,43,183,104
31540,-0.96728,0.05957,-0.0686,13,43,183,104
31560,-0.8830600000000001,0.3252,0.20947,13,43,183,104
31580,-0.96216,0.01416,0.04907,13,43,183,104
31600,-0.94214,-0.18726,-0.14136,13,43,183,104
31620,-0.96118,0.02344,-0.11597,13,43,183,104
31640,-0.96435,0.03174,0.14087,13,43,183,104
31660,-0.9541,0.04785,0.09985,13,43,183,104
31680,-0.96362,0.0542,-0.03442,13,43,183,104
31700,-0.9873,-0.06396,-0.10693,13,43,183,104
31720,-0.99658,-0.00073,-0.14844,13,43,183,104
31740,-0.92651,0.20801,0.15356,13,43,183,104
31760,-0.93042,0.15088,0.04126,13,43,183,104
31780,-0.95239,0.14648,0.19165,13,43,183,104
31800,-0.89551,0.11108,0.34839,13,43,183,104
31820,-0.94092,0.08276,0.28125,13,43,183,104
31840,-0.96167,0.04956,0.12622,13,43,183,104
31860,-0.98999,-0.01782,-0.06177,13,43,183,104
31880,-0.8989299999999999,0.27539,0.19458,13,43,183,104
31900,-0.95581,-0.12817,-0.20727,13,43,183,104
31920,-0.93555,-0.03174,-0.19385,13,43,183,104
31940,-0.96216,0.03955,-0.11108,13,43,183,104
31960,-0.979,0.02515,0.1272,13,43,183,104
31980,-0.8942899999999999,0.28076,0.21484,13,43,183,104
32000,-0.96631,-0.0778799999999999,-0.14893,13,43,183,104
32020,-0.96435,0.02637,-0.1557599999999999,13,43,183,104
32040,-0.90674,0.26001,-0.00049,13,43,183,104
32060,-0.94214,-0.11377,-0.0957,13,43,183,104
32080,-1.0063,0.1735799999999999,-0.13379,13,43,183,104
32100,-0.95605,-0.14941,0.0078099999999999,13,43,183,104
32120,-0.98315,0.13672,0.10352,13,43,183,104
32140,-0.94434,0.04639,-0.21704,13,43,183,104
32160,-0.96997,0.03516,0.0751899999999999,13,43,183,104
32180,-0.92407,0.19629,-0.11914,13,43,183,104
32200,-0.9729,0.03174,0.06372,13,43,183,104
32220,-1.0049,0.22046,0.08154,13,43,183,104
32240,-0.94287,0.1477099999999999,0.2124,13,43,183,104
32260,-0.92285,-0.17602,-0.22705,13,43,183,104
32280,-0.94238,-0.02564,-0.10718,13,43,183,104
32300,-1.0144,0.02979,-0.11646,13,43,183,104
32320,-0.93506,0.1145,-0.14722,13,43,183,104
32340,-0.97095,0.09009,-0.01685,13,43,183,104
32360,-0.96118,0.02344,-0.11597,13,43,183,104
32380,-0.93286,-0.18335,-0.2207,13,43,183,104
32400,-0.97363,-0.07031,-0.08276,13,43,183,104
32420,-0.89844,-0.31958,-0.36401,13,43,183,104
32440,-0.95093,0.04883,-0.04785,13,43,183,104
32460,-0.97363,0.24512,0.18433,13,43,183,104
32480,-0.9729,-0.07593,-0.04981,13,43,183,104
32500,-0.8886700000000001,0.23169,0.13501,13,43,183,104
32520,-0.96435,0.09375,0.1145,13,43,183,104
32540,-0.96704,-0.12476,-0.11816,13,43,183,104
32560,-0.96265,-0.12451,-0.13525,13,43,183,104
32580,-0.90967,-0.03003,-0.29712,13,43,183,104
32600,-0.95752,0.1311,-0.15356,13,43,183,104
32620,-0.93188,-0.1655299999999999,-0.25855,13,43,183,104
32640,-0.7727,0.5564,0.1652799999999999,13,43,183,104
32660,-0.97363,0.05566,0.02319,13,43,183,104
32680,-0.94702,0.07202,-0.0874,13,43,183,104
32700,-0.8959999999999999,0.10449,0.23706,13,43,183,104
32720,-0.98218,-0.04565,-0.11206,13,43,183,104
32740,-0.9458,0.14307,0.19556,13,43,183,104
32760,-1.0208,0.18628,0.21973,13,43,183,104
32780,-0.91577,-0.19019,-0.29443,13,43,183,104
32800,-0.96875,0.06055,-0.01538,13,43,183,104
32820,-0.9397,0.0695799999999999,-0.01245,13,43,183,104
32840,-0.96069,-0.052,-0.09155,13,43,183,104
32860,-0.94263,0.15698,0.25513,13,43,183,104
32880,-0.94995,0.03589,-0.02637,13,43,183,104
32900,-0.92505,0.06396,-0.10425,13,43,183,104
32920,-0.93481,-0.19482,-0.2168,13,43,183,104
32940,-0.97656,0.04541,-0.10303,13,43,183,104
32960,-0.8335,0.10181,-0.21094,13,43,183,104
32980,-0.8281299999999999,0.23462,0.15942,13,43,183,104
33000,-0.95117,0.22168,0.1330599999999999,13,43,183,104
33020,-0.96875,0.04541,0.11694,13,43,183,104
33040,-0.94873,0.15137,0.09595,13,43,183,104
33060,-0.9856,-0.00855,-0.05981,13,43,183,104
33080,-0.90332,0.37036,0.19702,13,43,183,104
33100,-0.96997,0.05225,0.19873,13,43,183,104
33120,-0.8920899999999999,0.34424,0.23169,13,43,183,104
33140,-0.94336,-0.04492,-0.23047,13,43,183,104
33160,-0.95483,-0.02661,-0.0918,13,43,183,104
33180,-0.95313,0.11206,0.21216,13,43,183,104
33200,-0.95654,-0.12354,-0.2373,13,43,183,104
33220,-0.97998,0.05151,0.04028,13,43,183,104
33240,-0.91382,-0.15942,-0.20898,13,43,183,104
33260,-0.8103,0.50635,0.1145,13,43,183,104
33280,-0.99878,0.19043,-0.34814,13,43,183,104
33300,-1.022,0.0669,-0.15796,13,43,183,104
33320,-0.97632,0.09888,0.06421,13,43,183,104
33340,-0.93652,0.04175,-0.17163,13,43,183,104
33360,-0.96435,-0.13452,-0.15869,13,43,183,104
33380,-0.93042,0.17602,0.14453,13,43,183,104
33400,-1.0098,0.18286,-0.26025,13,43,183,104
33420,-0.94458,0.20386,0.12573,13,43,183,104
33440,-0.96728,-0.05591,-0.06641,13,43,183,104
33460,-0.96313,-0.03418,-0.03711,13,43,183,104
33480,-0.97095,-0.09277,-0.01465,13,43,183,104
33500,-0.97266,-0.19702,-0.14429,13,43,183,104
33520,-0.96167,-0.0437,-0.06421,14,20,175,50
33540,-0.96118,-0.01782,-0.05103,14,20,175,50
33560,-0.94898,-0.18677,-0.16943,14,20,175,50
33580,-0.77563,0.53735,0.17334,14,20,175,50
33600,-0.91626,0.13745,0.25464,14,20,175,50
33620,-0.86426,0.18262,-0.25122,14,20,175,50
33640,-0.84106,0.44141,0.14307,14,20,175,50
33660,-0.8715799999999999,0.24854,0.18066,14,20,175,50
33680,-0.94824,0.17969,0.18457,14,20,175,50
33700,-0.94214,-0.11377,-0.0957,14,20,175,50
33720,-0.90503,0.03345,0.12256,14,20,175,50
33740,-0.97144,0.05933,0.09595,14,20,175,50
33760,-0.91797,-0.11328,-0.25781,14,20,175,50
33780,-0.95605,-0.02783,-0.14038,14,20,175,50
33800,-0.93286,-0.16309,-0.0852,14,20,175,50
33820,-0.95215,0.20508,0.1474599999999999,14,20,175,50
33840,-0.96143,0.02344,0.1062,14,20,175,50
33860,-0.94873,-0.1294,-0.10742,14,20,175,50
33880,-0.95459,0.00903,-0.11694,14,20,175,50
33900,-0.91187,-0.00269,0.15771,14,20,175,50
33920,-0.93286,0.052,-0.27612,14,20,175,50
33940,-0.77222,0.50244,0.12256,14,20,175,50
33960,-0.92773,0.25317,0.11816,14,20,175,50
33980,-0.9519,0.20972,0.12744,14,20,175,50
34000,-0.96655,-0.15991,-0.15991,14,20,175,50
34020,-0.95605,0.10156,0.14404,14,20,175,50
34040,-0.96802,0.03589,0.104,14,20,175,50
34060,-0.92163,-0.08594,-0.26465,14,20,175,50
34080,-0.95898,0.00903,-0.00488,14,20,175,50
34100,-0.91968,0.05835,-0.21167,14,20,175,50
34120,-0.97559,-0.01001,-0.12329,14,20,175,50
34140,-0.95825,-0.00513,-0.09302,14,20,175,50
34160,-0.90942,0.19141,0.1425799999999999,14,20,175,50
34180,-0.92676,0.1189,-0.25757,14,20,175,50
34200,-0.90332,0.35571,0.18066,14,20,175,50
34220,-0.91284,0.17602,0.11914,14,20,175,50
34240,-0.96655,-0.0078099999999999,-0.08252,14,20,175,50
34260,-0.9148,-0.04028,-0.28662,14,20,175,50
34280,-0.96777,0.0022,0.01416,14,20,175,50
34300,-0.96753,-0.04224,-0.09546,14,20,175,50
34320,-0.93384,0.04004,0.2273,14,20,175,50
34340,-0.99097,0.05835,0.12158,14,20,175,50
34360,-0.96875,-0.03662,-0.11792,14,20,175,50
34380,-0.92236,0.1377,0.17725,14,20,175,50
34400,-0.96533,0.13013,0.07153,14,20,175,50
34420,-0.89355,0.35791,0.2229,14,20,175,50
34440,-0.97095,-0.0136699999999999,-0.0861799999999999,14,20,175,50
34460,-0.96777,-0.07764,-0.12866,14,20,175,50
34480,-0.94263,0.10205,-0.12671,14,20,175,50
34500,-0.97339,0.08667,-0.01489,14,20,175,50
34520,-0.96655,0.0481,0.13818,14,20,175,50
34540,-0.9563,0.12769,0.07153,14,20,175,50
34560,-0.93115,0.03662,-0.05981,14,20,175,50
34580,-0.93628,0.1084,0.27832,14,20,175,50
34600,-0.94922,0.09399,-0.08472,14,20,175,50
34620,-0.93555,-0.01148,-0.1438,14,20,175,50
34640,-0.97046,0.08984,0.07105,14,20,175,50
34660,-0.95166,-0.02612,-0.16577,14,20,175,50
34680,-0.9104,0.22339,-0.22583,14,20,175,50
34700,-0.91577,-0.19019,-0.29443,14,20,175,50
34720,-0.93921,0.18848,0.15845,14,20,175,50
34740,-0.97827,-0.02905,-0.1167,14,20,175,50
34760,-0.8781700000000001,0.30444,0.22192,14,20,175,50
34780,-0.8884299999999999,0.01831,-0.12842,14,20,175,50
34800,-0.93579,0.21777,0.16675,14,20,175,50
34820,-0.96045,0.09448,-0.05103,14,20,175,50
34840,-0.96509,0.06665,-0.01953,14,20,175,50
34860,-0.96802,-0.05225,-0.09375,14,20,175,50
34880,-0.96338,-0.03149,-0.12329,14,20,175,50
34900,-0.95142,0.146,0.1228,14,20,175,50
34920,-1.0044,0.13208,0.29102,14,20,175,50
34940,-0.97852,-0.12988,-0.12378,14,20,175,50
34960,-0.9563,0.15405,0.1425799999999999,14,20,175,50
34980,-0.94312,-0.13159,-0.26074,14,20,175,50
35000,-0.96533,0.04981,-0.0415,14,20,175,50
35020,-0.95068,0.06103,-0.09204,14,20,175,50
35040,-0.7876,0.52563,0.15234,14,20,175,50
35060,-0.96069,-0.0571299999999999,-0.09009,14,20,175,50
35080,-0.95581,0.10913,0.11792,14,20,175,50
35100,-0.78857,0.53784,0.17847,14,20,175,50
35120,-0.97266,-0.04199,-0.18652,14,20,175,50
35140,-0.96997,0.03564,0.12598,14,20,175,50
35160,-0.95654,0.12817,-0.04956,14,20,175,50
35180,-0.9148,0.28711,0.20874,14,20,175,50
35200,-0.94482,0.03076,0.18335,14,20,175,50
35220,-0.93994,0.04248,-0.20166,14,20,175,50
35240,-0.95361,0.03882,-0.0695799999999999,14,20,175,50
35260,-0.98486,0.06982,0.09546,14,20,175,50
35280,-0.9602,-0.1787099999999999,-0.15625,14,20,175,50
35300,-0.96509,-0.00732,-0.16309,14,20,175,50
35320,-0.95508,0.04688,-0.11963,14,20,175,50
35340,-0.95605,-0.08814,-0.13452,14,20,175,50
35360,-0.95581,-0.07739,-0.1652799999999999,14,20,175,50
35380,-0.9812,-0.1814,-0.08862,14,20,175,50
35400,-0.95459,-0.12476,-0.2312,14,20,175,50
35420,-0.92407,0.08984,-0.16724,14,20,175,50
35440,-0.8322700000000001,0.03906,-0.16113,14,20,175,50
35460,-1.0686,-0.00098,0.04443,14,20,175,50
35480,-0.96973,-0.03906,-0.14624,14,20,175,50
35500,-0.96777,0.04419,0.06372,14,20,175,50
35520,-0.94995,0.06836,0.13599,14,20,175,50
35540,-0.97119,0.04419,0.11206,14,20,175,50
35560,-0.87036,-0.26416,-0.35938,14,20,175,50
35580,-0.94287,0.1425799999999999,0.16065,14,20,175,50
35600,-0.97046,-0.00952,-0.06665,14,20,175,50
35620,-0.93213,0.11548,0.14697,14,20,175,50
35640,-0.92065,0.15527,0.10962,14,20,175,50
35660,-0.99268,-0.1062,-0.05835,14,20,175,50
35680,-0.92261,-0.16724,-0.1391599999999999,14,20,175,50
35700,-0.98438,-0.16821,-0.05176,14,20,175,50
35720,-0.96704,0.06592,0.09082,14,20,175,50
35740,-0.96484,-0.03174,-0.09229,14,20,175,50
35760,-0.95239,-0.05322,-0.09253,14,20,175,50
35780,-0.91968,0.22583,0.0822799999999999,14,20,175,50
35800,-0.9541,0.1477099999999999,-0.15552,14,20,175,50
35820,-0.93286,0.23242,-0.03467,14,20,175,50
35840,-0.94019,0.00806,-0.27856,14,20,175,50
35860,-0.9375,0.13525,0.21509,14,20,175,50
35880,-0.91211,-0.04321,-0.19653,14,20,175,50
35900,-0.94287,0.19849,0.11182,14,20,175,50
35920,-0.95727,-0.02612,-0.10669,14,20,175,50
35940,-0.96167,-0.01733,-0.08398,14,20,175,50
35960,-0.95264,-0.10523,-0.08154,14,20,175,50
35980,-0.94385,0.1704099999999999,0.15137,14,20,175,50
36000,-0.99414,0.00757,-0.00684,15,40,192,65
36020,-0.85278,0.43286,0.15527,15,40,192,65
36040,-0.93799,0.21216,0.13135,15,40,192,65
36060,-0.95044,-0.1272,-0.14355,15,40,192,65
36080,-0.96484,0.1423299999999999,0.12329,15,40,192,65
36100,-0.97217,-0.00806,-0.03686,15,40,192,65
36120,-0.94409,-0.03735,-0.08301,15,40,192,65
36140,-0.95801,0.05249,-0.0813,15,40,192,65
36160,-0.96875,-0.12598,-0.08691,15,40,192,65
36180,-0.94336,0.14136,0.0415,15,40,192,65
36200,-0.89697,-0.09717,-0.17432,15,40,192,65
36220,-0.96851,-0.04907,-0.07715,15,40,192,65
36240,-0.94434,0.13721,0.21655,15,40,192,65
36260,-0.92944,-0.03027,-0.25952,15,40,192,65
36280,-0.93213,-0.02905,-0.23511,15,40,192,65
36300,-0.95288,0.11939,0.12329,15,40,192,65
36320,-0.96118,0.06396,-0.10767,15,40,192,65
36340,-0.97388,-0.09424,-0.16773,15,40,192,65
36360,-0.90161,0.03003,-0.30347,15,40,192,65
36380,-0.97217,0.04053,0.12646,15,40,192,65
36400,-0.98193,0.0695799999999999,0.11206,15,40,192,65
36420,-0.96118,0.11133,-0.00708,15,40,192,65
36440,-0.9729,-0.15771,-0.12134,15,40,192,65
36460,-0.94263,-0.08838,-0.16235,15,40,192,65
36480,-0.96704,0.01831,-0.07935,15,40,192,65
36500,-0.96973,-0.0529799999999999,-0.09766,15,40,192,65
36520,-0.96582,0.05469,0.12915,15,40,192,65
36540,-0.92602,-0.02441,-0.15283,15,40,192,65
36560,-0.93286,-0.16309,-0.0852,15,40,192,65
36580,-1.0059,0.0957,0.09375,15,40,192,65
36600,-0.9292,0.12207,-0.10864,15,40,192,65
36620,-0.97217,0.03052,0.00879,15,40,192,65
36640,-0.9519,-0.03638,-0.29907,15,40,192,65
36660,-0.86597,-0.25659,-0.33057,15,40,192,65
36680,-0.98999,0.04199,-0.0332,15,40,192,65
36700,-0.95386,-0.0712899999999999,-0.06299,15,40,192,65
36720,-0.97534,-0.1145,-0.17407,15,40,192,65
36740,-0.91528,-0.0415,-0.11523,15,40,192,65
36760,-0.93237,0.17114,-0.10083,15,40,192,65
36780,-0.96313,-0.0712899999999999,-0.0551799999999999,15,40,192,65
36800,-0.95972,0.04053,-0.0852,15,40,192,65
36820,-0.94507,-0.02954,-0.17749,15,40,192,65
36840,-0.94312,0.00171,-0.11475,15,40,192,65
36860,-0.96387,0.07666,-0.05347,15,40,192,65
36880,-0.95239,0.12646,-0.12671,15,40,192,65
36900,-0.94116,-0.1062,-0.05542,15,40,192,65
36920,-0.95215,-0.03906,-0.1499,15,40,192,65
36940,-0.9646,0.0249,0.15234,15,40,192,65
36960,-0.96509,0.06152,-0.08862,15,40,192,65
36980,-0.93237,0.15894,0.1474599999999999,15,40,192,65
37000,-0.92261,-0.16724,-0.1391599999999999,15,40,192,65
37020,-0.93799,0.04639,-0.11328,15,40,192,65
37040,-0.9668,0.03101,-0.0551799999999999,15,40,192,65
37060,-0.92114,0.19824,0.29126,15,40,192,65
37080,-0.97827,0.00757,0.10278,15,40,192,65
37100,-0.95947,0.16821,0.1062,15,40,192,65
37120,-0.95483,0.052,0.13184,15,40,192,65
37140,-0.90991,0.03174,-0.29883,15,40,192,65
37160,-0.9624,0.04492,0.16235,15,40,192,65
37180,-0.8830600000000001,0.1704099999999999,0.15869,15,40,192,65
37200,-0.89575,0.30322,0.20947,15,40,192,65
37220,-0.92065,0.30518,0.10547,15,40,192,65
37240,-0.91016,0.25855,0.15332,15,40,192,65
37260,-0.78565,0.54102,0.16626,15,40,192,65
37280,-0.9773,0.20923,0.12915,15,40,192,65
37300,-0.92041,-0.14551,-0.21484,15,40,192,65
37320,-0.94092,-0.09619,-0.23535,15,40,192,65
37340,-0.95386,0.00244,-0.11401,15,40,192,65
37360,-0.94092,0.10352,-0.17236,15,40,192,65
37380,-0.89917,0.30566,0.14502,15,40,192,65
37400,-0.95654,-0.12354,-0.2373,15,40,192,65
37420,-0.95313,-0.02759,-0.10767,15,40,192,65
37440,-0.92017,0.29224,0.12695,15,40,192,65
37460,-0.95532,0.03784,-0.0156199999999999,15,40,192,65
37480,-0.94922,-0.03955,-0.09473,15,40,192,65
37500,-0.9563,0.06396,0.05933,15,40,192,65
37520,-0.8830600000000001,0.35669,0.20239,15,40,192,65
37540,-0.8894,0.09619,-0.21997,15,40,192,65
37560,-0.94214,0.13135,0.20581,15,40,192,65
37580,-0.9563,0.08984,-0.09668,15,40,192,65
37600,-0.95752,-0.02832,-0.12988,15,40,192,65
37620,-0.96728,0.05957,-0.0686,15,40,192,65
37640,-0.96289,-0.05371,-0.13525,15,40,192,65
37660,-0.96216,0.02173,-0.12744,15,40,192,65
37680,-0.9148,0.28711,0.20874,15,40,192,65
37700,-0.96777,0.11108,0.0957,15,40,192,65
37720,-0.95947,0.05347,0.08789,15,40,192,65
37740,-0.94214,-0.09644,-0.07007,15,40,192,65
37760,-0.91333,0.17554,0.1057099999999999,15,40,192,65
37780,-0.97266,0.0061,-0.0647,15,40,192,65
37800,-0.96289,-0.05371,-0.13525,15,40,192,65
37820,-1.0088,0.0249,0.10913,15,40,192,65
37840,-0.9602,-0.00317,0.03857,15,40,192,65
37860,-0.97266,0.0061,-0.0647,15,40,192,65
37880,-0.92798,0.20923,0.13867,15,40,192,65
37900,-0.94287,0.1425799999999999,0.16065,15,40,192,65
37920,-0.96875,-0.03979,-0.02368,15,40,192,65
37940,-0.95581,-0.06519,-0.23438,15,40,192,65
37960,-0.9856,-0.00708,0.12817,15,40,192,65
37980,-0.8706,0.07227,-0.1709,15,40,192,65
38000,-0.96924,-0.00488,-0.06274,15,40,192,65
38020,-0.8064,0.5200199999999999,0.15283,15,40,192,65
38040,-0.96313,-0.16309,-0.0271,15,40,192,65
38060,-0.95752,0.1294,0.18799,15,40,192,65
38080,-0.94067,0.16357,0.12427,15,40,192,65
38100,-0.8696299999999999,0.35498,0.18994,15,40,192,65
38120,-0.96728,0.01538,-0.08911,15,40,192,65
38140,-0.95776,0.12134,-0.04981,15,40,192,65
38160,-0.94482,0.28101,0.11792,15,40,192,65
38180,-0.96509,0.15894,0.14307,15,40,192,65
38200,-0.93872,-0.08179,-0.29224,15,40,192,65
38220,-0.93872,0.10815,-0.1477099999999999,15,40,192,65
38240,-0.96118,-0.15894,-0.19946,15,40,192,65
38260,-0.948,-0.0144,-0.07495,15,40,192,65
38280,-0.95044,-0.01856,-0.10718,15,40,192,65
38300,-0.97461,0.00513,0.16113,15,40,192,65
38320,-0.94751,0.00855,-0.21167,15,40,192,65
38340,-0.95923,0.03686,0.07568,15,40,192,65
38360,-0.96704,0.11768,0.1643099999999999,15,40,192,65
38380,-0.9773,0.04272,-0.08398,15,40,192,65
38400,-0.84839,0.43604,0.19409,15,40,192,65
38420,-0.92798,0.20923,0.13867,15,40,192,65
38440,-0.93652,-0.03882,-0.27173,15,40,192,65
38460,-0.9563,-0.05029,-0.09692,15,40,192,65
38480,-1.0098,0.0581,-0.10986,15,40,192,65
38500,-0.94605,0.1311,-0.03125,15,40,192,65
38520,-0.91968,0.22095,-0.14624,15,40,192,65
38540,-0.94751,0.20239,0.12305,15,40,192,65
38560,-0.86426,0.20117,0.07617,15,40,192,65
38580,-0.94727,0.04981,-0.10376,15,40,192,65
38600,-0.95386,-0.0603,-0.22827,15,40,192,65
38620,-0.95435,0.12769,0.03589,15,40,192,65
38640,-0.95264,0.15112,0.12427,15,40,192,65
38660,-0.96875,0.0529799999999999,0.02832,16,55,157,84
38680,-0.91846,0.26123,0.20386,16,55,157,84
38700,-0.8486299999999999,0.43896,0.15112,16,55,157,84
38720,-0.95801,0.04932,-0.01514,16,55,157,84
38740,-0.90674,0.32642,0.24072,16,55,157,84
38760,-0.93408,0.19336,0.15259,16,55,157,84
38780,-0.94605,-0.08765,-0.13794,16,55,157,84
38800,-0.91895,0.28345,0.29224,16,55,157,84
38820,-0.96631,0.03223,-0.06592,16,55,157,84
38840,-0.97705,-0.01074,-0.00317,16,55,157,84
38860,-0.96728,0.0078099999999999,-0.0918,16,55,157,84
38880,-0.79614,0.52148,0.1167,16,55,157,84
38900,-0.92676,0.15454,0.03638,16,55,157,84
38920,-0.91431,0.30273,0.19263,16,55,157,84
38940,-0.92822,0.10278,0.14868,16,55,157,84
38960,-0.95288,-0.07275,-0.18433,16,55,157,84
38980,-0.97217,0.0139199999999999,-0.11377,16,55,157,84
39000,-0.95679,0.1582,-0.06787,16,55,157,84
39020,-0.96143,0.10107,-0.11548,16,55,157,84
39040,-0.90796,0.08472,-0.31616,16,55,157,84
39060,-0.97217,-0.03003,-0.19995,16,55,157,84
39080,-0.97095,0.02856,0.14038,16,55,157,84
39100,-0.92651,-0.07886,-0.19531,16,55,157,84
39120,-0.96338,-0.01123,-0.09131,16,55,157,84
39140,-0.948,0.16773,0.10132,16,55,157,84
39160,-0.93677,-0.02441,-0.1557599999999999,16,55,157,84
39180,-0.95459,0.09033,-0.11401,16,55,157,84
39200,-0.95557,-0.06665,-0.08252,16,55,157,84
39220,-0.9082,0.15381,-0.12988,16,55,157,84
39240,-0.95898,0.07861,-0.13379,16,55,157,84
39260,-0.9856,-0.00855,-0.05981,16,55,157,84
39280,-0.9668,0.04199,0.08667,16,55,157,84
39300,-0.95874,-0.21143,-0.1897,16,55,157,84
39320,-0.97119,0.1626,-0.07202,16,55,157,84
39340,-0.92627,0.26636,0.16577,16,55,157,84
39360,-0.8640100000000001,-0.28735,-0.31592,16,55,157,84
39380,-0.91675,0.07178,-0.08984,16,55,157,84
39400,-0.95727,0.02881,-0.13086,16,55,157,84
39420,-0.8779299999999999,0.37231,0.19165,16,55,157,84
39440,-0.93481,0.19824,0.10693,16,55,157,84
39460,-0.96435,-0.04443,-0.03857,16,55,157,84
39480,-0.93945,0.18237,0.10278,16,55,157,84
39500,-0.8830600000000001,0.3252,0.20947,16,55,157,84
39520,-0.97974,0.02002,-0.12061,16,55,157,84
39540,-0.94849,0.04541,-0.14014,16,55,157,84
39560,-0.9729,-0.00415,-0.11987,16,55,157,84
39580,-0.93872,0.13086,0.13355,16,55,157,84
39600,-0.95117,0.10523,-0.11304,16,55,157,84
39620,-0.92969,0.13892,-0.36865,16,55,157,84
39640,-0.9646,-0.01856,-0.12598,16,55,157,84
39660,-0.95947,0.07251,-0.07544,16,55,157,84
39680,-0.9397,0.07153,-0.11279,16,55,157,84
39700,-0.96924,-0.03125,0.01929,16,55,157,84
39720,-0.9856,0.05566,0.16968,16,55,157,84
39740,-0.97925,-0.0271,-0.17993,16,55,157,84
39760,-0.93603,-0.09399,-0.25977,16,55,157,84
39780,-0.96411,0.00757,-0.09326,16,55,157,84
39800,-0.95923,-0.01953,-0.0918,16,55,157,84
39820,-0.97998,0.06836,0.1919,16,55,157,84
39840,-0.9231,0.24536,0.14209,16,55,157,84
39860,-0.94605,0.02124,-0.17725,16,55,157,84
39880,-0.93335,0.3479,0.20142,16,55,157,84
39900,-0.96728,0.12109,0.14941,16,55,157,84
39920,-0.94678,-0.12769,-0.177,16,55,157,84
39940,-0.94507,0.00488,-0.20605,16,55,157,84
39960,-0.91406,0.07739,-0.15088,16,55,157,84
39980,-0.9436,-0.01587,-0.2124,16,55,157,84
40000,-1.002,0.16846,0.22168,16,55,157,84
40020,-0.91235,0.34106,0.19849,16,55,157,84
40040,-0.92554,0.05689,-0.0144,16,55,157,84
40060,-0.78345,0.41089,0.15723,16,55,157,84
40080,-0.95532,0.03686,-0.08569,16,55,157,84
40100,-0.94922,0.13159,0.22363,16,55,157,84
40120,-0.94775,-0.15625,-0.12598,16,55,157,84
40140,-0.96362,-0.0078099999999999,-0.04981,16,55,157,84
40160,-0.93628,0.06299,-0.18945,16,55,157,84
40180,-0.96728,0.02905,0.11328,16,55,157,84
40200,-0.979,0.06567,0.16309,16,55,157,84
40220,-0.8493700000000001,0.45727,0.15771,16,55,157,84
40240,-0.98242,-0.06152,0.0061,16,55,157,84
40260,-0.97046,-0.04321,-0.12988,16,55,157,84
40280,-0.83765,0.4939,0.17114,16,55,157,84
40300,-0.92822,0.15356,-0.21094,16,55,157,84
40320,-0.96728,-0.00684,-0.05347,16,55,157,84
40340,-0.93115,0.20044,0.09741,16,55,157,84
40360,-0.93897,0.06494,0.06494,16,55,157,84
40380,-0.96411,-0.02515,-0.07153,16,55,157,84
40400,-0.88574,0.38818,0.14722,16,55,157,84
40420,-0.97363,0.10278,-0.10767,16,55,157,84
40440,-0.9707,0.0293,0.11157,16,55,157,84
40460,-0.92993,0.1648,-0.21704,16,55,157,84
40480,-1.0203,0.02295,-0.13794,16,55,157,84
40500,-0.8779299999999999,0.37231,0.19165,16,55,157,84
40520,-0.948,0.16162,-0.09497,16,55,157,84
40540,-0.96484,0.04932,-0.11304,16,55,157,84
40560,-0.92212,0.11792,-0.20801,16,55,157,84
40580,-1.0034,0.02002,0.06763,16,55,157,84
40600,-0.97046,0.08984,0.07105,16,55,157,84
40620,-0.96143,0.05225,0.14526,16,55,157,84
40640,-0.83057,0.40039,0.06885,16,55,157,84
40660,-0.93359,0.15161,0.14795,16,55,157,84
40680,-0.93921,0.18115,-0.00342,16,55,157,84
40700,-0.92969,0.15991,0.12817,16,55,157,84
40720,-0.7612300000000001,0.50147,0.1189,16,55,157,84
40740,-0.78857,0.53369,0.16797,16,55,157,84
40760,-0.96533,0.01245,-0.06519,16,55,157,84
40780,-0.9729,0.06616,-0.06616,16,55,157,84
40800,-0.95825,0.0835,0.0835,16,55,157,84
40820,-0.86035,0.43652,0.15527,17,30,178,88
40840,-0.97754,0.07495,-0.03979,17,30,178,88
40860,-0.91748,0.10254,-0.08789,17,30,178,88
40880,-0.99683,-0.00195,-0.0625,17,30,178,88
40900,-0.88013,0.34521,0.22461,17,30,178,88
40920,-0.78296,0.52881,0.16284,17,30,178,88
40940,-0.93994,0.22803,0.13159,17,30,178,88
40960,-0.94507,0.14502,0.17847,17,30,178,88
40980,-0.97217,-0.09546,-0.08447,17,30,178,88
41000,-0.95239,0.02588,-0.2168,17,30,178,88
41020,-0.8042,0.50952,0.1521,17,30,178,88
41040,-0.94873,-0.07861,-0.2334,17,30,178,88
41060,-0.94434,0.02393,-0.29224,17,30,178,88
41080,-0.98975,-0.0852,-0.12793,17,30,178,88
41100,-0.92969,0.03882,0.22095,17,30,178,88
41120,-0.9082,0.2898,0.21265,17,30,178,88
41140,-0.94458,0.09692,-0.09741,17,30,178,88
41160,-0.94629,0.15771,0.13257,17,30,178,88
41180,-0.94556,0.20044,0.12061,17,30,178,88
41200,-0.95825,-0.12695,-0.12158,17,30,178,88
41220,-0.95752,0.04736,0.19263,17,30,178,88
41240,-0.8364299999999999,0.46582,0.19629,17,30,178,88
41260,-0.95776,-0.07715,-0.24805,17,30,178,88
41280,-0.92407,0.11816,-0.00049,17,30,178,88
41300,-0.99536,-0.07251,-0.1023,17,30,178,88
41320,-0.93066,0.15039,0.05933,17,30,178,88
41340,-0.93408,0.14404,-0.02881,17,30,178,88
41360,-0.97705,-0.12769,-0.10034,17,30,178,88
41380,-0.8825700000000001,0.29883,0.29956,17,30,178,88
41400,-0.94849,0.21167,0.10474,17,30,178,88
41420,-0.93164,0.00977,-0.1477099999999999,17,30,178,88
41440,-0.97192,0.04883,0.09375,17,30,178,88
41460,-0.93823,0.18481,-0.12402,17,30,178,88
41480,-0.97168,0.0551799999999999,0.10303,17,30,178,88
41500,-0.96509,-0.00659,-0.02515,17,30,178,88
41520,-0.94556,-0.01831,-0.13379,17,30,178,88
41540,-0.96997,-0.04761,-0.09668,17,30,178,88
41560,-0.96216,0.1789599999999999,0.15845,17,30,178,88
41580,-0.97388,-0.00903,0.0896,17,30,178,88
41600,-1.002,0.16138,-0.0918,17,30,178,88
41620,-0.94238,0.00586,-0.04272,17,30,178,88
41640,-0.96191,-0.05615,-0.10864,17,30,178,88
41660,-0.94922,0.05542,-0.14477,17,30,178,88
41680,-0.95117,-0.10474,-0.19214,17,30,178,88
41700,-0.9043,-0.23389,-0.23926,17,30,178,88
41720,-0.96851,-0.00928,-0.06885,17,30,178,88
41740,-0.96118,0.03247,0.09033,17,30,178,88
41760,-0.93799,0.13135,0.21655,17,30,178,88
41780,-0.98242,-0.06152,0.0061,17,30,178,88
41800,-0.98877,-0.00635,-0.04394,17,30,178,88
41820,-0.97412,0.0669,0.05835,17,30,178,88
41840,-0.9646,-0.07178,-0.03662,17,30,178,88
41860,-0.94336,-0.25073,-0.13525,17,30,178,88
41880,-0.92261,0.18628,-0.06763,17,30,178,88
41900,-0.92114,-0.12305,-0.20117,17,30,178,88
41920,-0.9519,-0.00928,-0.15356,17,30,178,88
41940,-0.93457,0.13989,0.08398,17,30,178,88
41960,-0.94019,-0.19556,-0.23828,17,30,178,88
41980,-0.9956,0.13257,-0.14331,17,30,178,88
42000,-0.94946,0.02588,0.08716,17,30,178,88
42020,-0.88574,0.38818,0.14722,17,30,178,88
42040,-0.92285,-0.08081,-0.33594,17,30,178,88
42060,-0.90527,-0.00855,0.37158,17,30,178,88
42080,-0.93286,0.14502,0.0564,17,30,178,88
42100,-0.94824,0.0708,-0.12524,17,30,178,88
42120,-0.93408,-0.04394,-0.21411,17,30,178,88
42140,-0.8295899999999999,0.50659,0.15039,17,30,178,88
42160,-0.9917,0.04175,-0.07715,17,30,178,88
42180,-0.97144,-0.12817,-0.1001,17,30,178,88
42200,-0.96777,-0.01538,-0.11914,17,30,178,88
42220,-0.92407,0.20557,0.12378,17,30,178,88
42240,-0.97437,-0.1342799999999999,-0.13574,17,30,178,88
42260,-0.9397,0.16357,-0.03296,17,30,178,88
42280,-0.98511,0.03638,-0.1604,17,30,178,88
42300,-0.93652,0.09863,-0.07715,17,30,178,88
42320,-0.95727,-0.06274,-0.22437,17,30,178,88
42340,-0.94507,0.11353,-0.15942,17,30,178,88
42360,-0.9353,-0.16943,-0.23486,17,30,178,88
42380,-0.92969,0.15991,0.12817,17,30,178,88
42400,-0.97168,-0.04346,-0.14722,17,30,178,88
42420,-0.95703,0.07593,0.17432,17,30,178,88
42440,-0.94458,0.00635,-0.15503,17,30,178,88
42460,-0.93872,-0.10034,-0.27026,17,30,178,88
42480,-0.80835,0.49487,0.1023,17,30,178,88
42500,-0.90601,0.14648,-0.08765,17,30,178,88
42520,-0.96582,0.04834,-0.07031,17,30,178,88
42540,-0.9375,0.14111,0.2229,17,30,178,88
42560,-0.92676,0.10913,0.11743,17,30,178,88
42580,-0.95898,-0.02954,-0.10669,17,30,178,88
42600,-0.91357,-0.1394,-0.28101,17,30,178,88
42620,-0.96338,-0.02124,-0.12085,17,30,178,88
42640,-0.98901,0.11768,0.15112,17,30,178,88
42660,-0.9895,0.29053,0.01196,17,30,178,88
42680,-0.92944,0.08301,-0.17261,17,30,178,88
42700,-0.91943,0.01245,-0.27856,17,30,178,88
42720,-0.96069,0.10425,-0.0896,17,30,178,88
42740,-0.88794,0.3523,0.18066,17,30,178,88
42760,-0.9563,0.05371,0.0061,17,30,178,88
42780,-0.93408,0.04248,-0.19775,17,30,178,88
42800,-0.89746,-0.25561,-0.2854,17,30,178,88
42820,-0.94824,-0.20727,-0.18677,17,30,178,88
42840,-0.97705,0.04297,-0.10718,17,30,178,88
42860,-0.96631,-0.03027,-0.10913,17,30,178,88
42880,-0.96973,0.07642,-0.06006,17,30,178,88
42900,-0.94824,0.0227,-0.13452,17,30,178,88
42920,-0.96045,-0.04688,-0.08252,17,30,178,88
42940,-0.7932100000000001,0.51563,0.15649,17,30,178,88
42960,-0.90991,0.05591,-0.29614,17,30,178,88
42980,-0.96289,-0.06006,-0.0778799999999999,17,30,178,88
43000,-0.90772,0.29346,0.22803,17,30,178,88
43020,-0.97681,-0.06982,-0.02637,17,30,178,88
43040,-0.94678,0.05005,-0.12183,17,30,178,88
43060,-0.90308,0.35083,0.12158,17,30,178,88
43080,-0.98023,0.02856,-0.11084,17,30,178,88
43100,-0.8588899999999999,0.37061,0.22656,17,30,178,88
43120,-0.9519,-0.05225,-0.14648,17,30,178,88
43140,-0.9248,0.14868,-0.18042,17,30,178,88
43160,-0.94141,0.15332,0.2085,17,30,178,88
43180,-0.96973,0.12817,0.05151,17,30,178,88
43200,-1.001,0.1355,-0.0647,17,30,178,88
43220,-0.96899,-0.0791,-0.12427,17,30,178,88
43240,-0.83862,0.4209,0.15356,17,30,178,88
43260,-0.9646,0.03882,-0.05615,17,30,178,88
43280,-0.96924,0.05176,-0.13623,17,30,178,88
43300,-0.96704,-0.04761,-0.03809,17,30,178,88
43320,-0.96362,-0.03931,-0.00366,17,30,178,88
43340,-0.93384,-0.00586,-0.1709,17,30,178,88
43360,-0.93457,0.05566,-0.09106,17,30,178,88
43380,-0.92871,0.03662,-0.13452,17,30,178,88
43400,-0.93701,-0.09521,-0.19385,17,30,178,88
43420,-0.8830600000000001,0.29395,0.16284,17,30,178,88
43440,-0.96851,-0.10425,-0.13599,17,30,178,88
43460,-0.97241,0.04004,0.13818,17,30,178,88
43480,-0.96191,-0.04272,-0.10059,17,30,178,88
43500,-0.94385,-0.10205,-0.1652799999999999,17,30,178,88
43520,-0.96338,-0.0144,-0.05615,17,30,178,88
43540,-0.92602,-0.02441,-0.15283,17,30,178,88
43560,-0.9646,0.1059599999999999,0.02441,17,30,178,88
43580,-0.95557,-0.01758,-0.10669,17,30,178,88
43600,-0.98901,0.12061,-0.0376,17,30,178,88
43620,-0.9624,-0.08301,-0.16699,17,30,178,88
43640,-0.9668,-0.01025,-0.09717,17,30,178,88
43660,-0.9707,0.01416,0.15503,17,30,178,88
43680,-0.91211,-0.04321,-0.19653,18,62,151,76
43700,-0.96362,-0.10815,-0.16968,18,62,151,76
43720,-0.95386,0.14404,0.10376,18,62,151,76
43740,-0.8806200000000001,-0.12744,-0.20508,18,62,151,76
43760,-0.95264,-0.05591,-0.20288,18,62,151,76
43780,-0.92163,0.14185,0.18677,18,62,151,76
43800,-0.96582,-0.11475,-0.18066,18,62,151,76
43820,-0.97656,0.04541,-0.10303,18,62,151,76
43840,-0.95239,-0.09668,-0.10376,18,62,151,76
43860,-0.94287,0.17407,0.12866,18,62,151,76
43880,-0.90942,0.11475,0.19531,18,62,151,76
43900,-0.9375,0.19678,0.14136,18,62,151,76
43920,-0.87915,0.26758,-0.30273,18,62,151,76
43940,-0.79004,0.53149,0.15015,18,62,151,76
43960,-0.94946,0.02588,0.08716,18,62,151,76
43980,-0.95215,-0.01733,-0.09595,18,62,151,76
44000,-1.0134,0.13696,0.07397,18,62,151,76
44020,-0.98413,0.07935,0.13623,18,62,151,76
44040,-0.96826,0.08252,-0.05005,18,62,151,76
44060,-0.94458,-0.08398,-0.0669,18,62,151,76
44080,-0.95776,-0.0166,-0.0822799999999999,18,62,151,76
44100,-0.94092,0.21948,0.14502,18,62,151,76
44120,-0.90259,0.30347,0.18359,18,62,151,76
44140,-0.96509,0.05151,0.14355,18,62,151,76
44160,-0.97266,-0.04199,-0.18652,18,62,151,76
44180,-0.92895,0.13989,0.1391599999999999,18,62,151,76
44200,-0.8737799999999999,0.35693,0.16675,18,62,151,76
44220,-0.98511,0.02417,-0.10962,18,62,151,76
44240,-0.89502,-0.07861,-0.30737,18,62,151,76
44260,-0.91528,-0.1557599999999999,-0.17212,18,62,151,76
44280,-0.96973,-0.05151,-0.0551799999999999,18,62,151,76
44300,-0.87231,0.23901,0.19067,18,62,151,76
44320,-0.7954100000000001,0.52978,0.17602,18,62,151,76
44340,-0.90015,0.29883,0.18408,18,62,151,76
44360,-0.948,0.16162,-0.09497,18,62,151,76
44380,-0.97315,0.02124,-0.12866,18,62,151,76
44400,-1.0076,0.06909,-0.02954,18,62,151,76
44420,-0.99634,0.09619,0.04785,18,62,151,76
44440,-0.96362,0.1294,0.20508,18,62,151,76
44460,-0.96094,-0.00928,-0.09668,18,62,151,76
44480,-0.97217,0.04053,0.12646,18,62,151,76
44500,-0.91357,0.18652,-0.26025,18,62,151,76
44520,-0.9021,0.28906,0.19385,18,62,151,76
44540,-0.92163,0.06738,-0.16235,18,62,151,76
44560,-0.95508,0.05249,0.12085,18,62,151,76
44580,-0.95825,0.12671,0.1897,18,62,151,76
44600,-0.96362,0.03296,-0.07739,18,62,151,76
44620,-0.95825,-0.05176,-0.07886,18,62,151,76
44640,-0.78613,0.5415,0.12573,18,62,151,76
44660,-0.9519,-0.02686,-0.0822799999999999,18,62,151,76
44680,-0.92969,0.19263,-0.16602,18,62,151,76
44700,-0.95044,0.15503,-0.13257,18,62,151,76
44720,-0.96167,-0.00366,-0.02539,18,62,151,76
44740,-0.96899,-0.06055,-0.06519,18,62,151,76
44760,-0.97217,-0.1416,-0.07422,18,62,151,76
44780,-0.96143,0.02344,0.1062,18,62,151,76
44800,-0.94263,-0.05933,-0.12085,18,62,151,76
44820,-0.8742700000000001,0.10791,-0.04663,18,62,151,76
44840,-0.90796,0.39331,0.12549,18,62,151,76
44860,-0.96338,0.07324,0.04077,18,62,151,76
44880,-0.8959999999999999,0.32227,0.08814,18,62,151,76
44900,-0.95972,-0.00903,-0.12256,18,62,151,76
44920,-0.9458,0.12573,-0.14917,18,62,151,76
44940,-0.96728,0.01538,-0.08911,18,62,151,76
44960,-0.98706,-0.07178,-0.04199,18,62,151,76
44980,-0.95874,0.10205,-0.10303,18,62,151,76
45000,-0.96118,0.11768,0.14307,18,62,151,76
45020,-0.92798,-0.01294,-0.25244,18,62,151,76
45040,-0.94873,-0.07861,-0.2334,18,62,151,76
45060,-0.89404,0.18359,-0.14355,18,62,151,76
45080,-0.95557,0.04419,0.11353,18,62,151,76
45100,-0.94092,0.26294,0.16382,18,62,151,76
45120,-0.93872,-0.09815,-0.18774,18,62,151,76
45140,-0.8623,0.40625,0.1521,18,62,151,76
45160,-0.92578,-0.27515,-0.11157,18,62,151,76
45180,-0.96338,-0.03686,-0.02368,18,62,151,76
45200,-0.93213,-0.11157,-0.23291,18,62,151,76
45220,-0.94531,-0.17554,-0.1477099999999999,18,62,151,76
45240,-0.95361,0.13794,-0.13818,18,62,151,76
45260,-0.96045,-0.01831,-0.1416,18,62,151,76
45280,-0.93774,0.1560099999999999,0.17212,18,62,151,76
45300,-0.91748,0.23267,0.22656,18,62,151,76
45320,-0.93042,-0.28418,-0.24683,18,62,151,76
45340,-0.98901,0.11768,0.15112,18,62,151,76
45360,-0.94727,0.1189,-0.06323,18,62,151,76
45380,-0.92895,0.22192,0.12134,18,62,151,76
45400,-0.96728,-0.05591,-0.06641,18,62,151,76
45420,-0.89087,-0.07739,0.18628,18,62,151,76
45440,-0.93774,-0.1328099999999999,-0.13037,18,62,151,76
45460,-0.97656,0.00049,-0.09473,18,62,151,76
45480,-0.97998,0.0712899999999999,0.12134,18,62,151,76
45500,-0.95239,0.00562,-0.11157,18,62,151,76
45520,-0.96753,-0.00073,-0.12231,18,62,151,76
45540,-0.9563,-0.0957,-0.09985,18,62,151,76
45560,-0.95727,0.03027,0.15112,18,62,151,76
45580,-0.95776,0.12134,-0.04981,18,62,151,76
45600,-0.9502,-0.1340299999999999,-0.15039,18,62,151,76
45620,-0.94946,-0.1084,-0.15942,18,62,151,76
45640,-0.9353,0.04785,-0.11426,18,62,151,76
45660,-0.94556,0.02319,0.2854,18,62,151,76
45680,-0.87256,0.37573,0.25561,18,62,151,76
45700,-0.95947,0.16016,-0.052,18,62,151,76
45720,-0.93579,-0.14648,-0.24976,18,62,151,76
45740,-0.96533,-0.06665,-0.0813,18,62,151,76
45760,-0.9917,0.04175,-0.07715,18,62,151,76
45780,-0.9563,-0.052,-0.09668,18,62,151,76
45800,-0.95337,-0.00635,-0.12964,18,62,151,76
45820,-0.948,-0.0144,-0.07495,18,62,151,76
45840,-0.94702,-0.07812,-0.20703,18,62,151,76
45860,-0.95605,-0.02197,-0.09741,18,62,151,76
45880,-0.87866,0.34766,0.15674,18,62,151,76
45900,-0.95898,0.125,0.02051,18,62,151,76
45920,-0.90796,0.36865,0.10913,18,62,151,76
45940,-0.97998,-0.09351,-0.16699,18,62,151,76
45960,-0.90259,-0.14209,-0.08252,18,62,151,76
45980,-0.95727,0.04443,-0.08887,18,62,151,76
46000,-0.81348,0.50562,0.10352,18,62,151,76
46020,-0.97315,0.04712,-0.0778799999999999,18,62,151,76
46040,-0.97022,0.04883,0.03613,18,62,151,76
46060,-0.92847,0.23877,0.26245,19,21,172,56
46080,-0.96875,0.04443,-0.09936,19,21,172,56
46100,-0.948,-0.0144,-0.07495,19,21,172,56
46120,-0.91577,0.12891,0.13648,19,21,172,56
46140,-0.94141,0.03442,-0.23315,19,21,172,56
46160,-0.96802,0.02783,-0.09692,19,21,172,56
46180,-0.97803,-0.00879,-0.08252,19,21,172,56
46200,-0.94898,-0.04199,-0.09936,19,21,172,56
46220,-0.95435,0.01929,-0.08765,19,21,172,56
46240,-0.91455,0.15332,-0.13013,19,21,172,56
46260,-0.9375,-0.0227,-0.09155,19,21,172,56
46280,-0.96631,0.01074,-0.09082,19,21,172,56
46300,-0.8762200000000001,0.31543,-0.09961,19,21,172,56
46320,-0.97192,0.04883,0.09375,19,21,172,56
46340,-0.97168,-0.11035,-0.32105,19,21,172,56
46360,-0.9668,0.05078,-0.06592,19,21,172,56
46380,-0.93799,-0.0527299999999999,-0.27515,19,21,172,56
46400,-0.92944,-0.19067,-0.19409,19,21,172,56
46420,-0.95532,0.03784,-0.0156199999999999,19,21,172,56
46440,-0.97974,0.00903,-0.06079,19,21,172,56
46460,-0.90088,0.30469,0.13965,19,21,172,56
46480,-0.99512,-0.03906,-0.12378,19,21,172,56
46500,-0.90967,0.22315,0.19605,19,21,172,56
46520,-0.94702,-0.02026,-0.1919,19,21,172,56
46540,-0.94898,0.11646,0.18408,19,21,172,56
46560,-0.95288,-0.06103,-0.14038,19,21,172,56
46580,-0.85645,0.4184600000000001,0.14331,19,21,172,56
46600,-0.95679,-0.00806,-0.0861799999999999,19,21,172,56
46620,-0.90674,-0.12891,-0.23975,19,21,172,56
46640,-0.95508,0.09155,-0.0791,19,21,172,56
46660,-0.91968,0.16626,0.03833,19,21,172,56
46680,-0.98291,0.14917,0.14795,19,21,172,56
46700,-1.0044,-0.01611,-0.09839,19,21,172,56
46720,-0.92798,0.17065,0.1423299999999999,19,21,172,56
46740,-0.95361,0.10718,-0.09399,19,21,172,56
46760,-0.94824,0.1311,0.17969,19,21,172,56
46780,-0.97412,0.07105,-0.07202,19,21,172,56
46800,-0.93701,-0.14868,-0.25,19,21,172,56
46820,-0.94922,0.14429,0.2478,19,21,172,56
46840,-0.96582,0.03564,0.12817,19,21,172,56
46860,-0.93823,0.07666,-0.06763,19,21,172,56
46880,-0.93213,0.06665,-0.12402,19,21,172,56
46900,-0.98706,0.15796,0.11914,19,21,172,56
46920,-0.94165,-0.01318,-0.1521,19,21,172,56
46940,-0.96143,-0.00195,-0.2124,19,21,172,56
46960,-0.8942899999999999,0.28076,0.21484,19,21,172,56
46980,-0.95874,0.00195,-0.07812,19,21,172,56
47000,-0.90405,-0.20386,-0.27393,19,21,172,56
47020,-0.96094,0.03052,-0.0695799999999999,19,21,172,56
47040,-0.94043,-0.22241,-0.08374,19,21,172,56
47060,-0.9602,-0.01709,-0.1340299999999999,19,21,172,56
47080,-1.0671,-0.00098,-0.1272,19,21,172,56
47100,-0.97363,0.0603,0.11035,19,21,172,56
47120,-0.95581,0.04297,-0.04468,19,21,172,56
47140,-0.96533,-0.02979,-0.0671399999999999,19,21,172,56
47160,-0.79785,0.38477,0.17456,19,21,172,56
47180,-0.93042,-0.28418,-0.24683,19,21,172,56
47200,-0.9773,0.04004,-0.0571299999999999,19,21,172,56
47220,-0.93897,-0.12671,-0.24536,19,21,172,56
47240,-0.9314,0.14429,0.19312,19,21,172,56
47260,-0.96118,-0.01074,-0.14868,19,21,172,56
47280,-0.9519,0.06006,-0.1001,19,21,172,56
47300,-0.96338,0.04761,0.11206,19,21,172,56
47320,-0.95093,0.23877,0.13355,19,21,172,56
47340,-0.94165,0.21973,-0.05103,19,21,172,56
47360,-0.9773,0.03613,0.1311,19,21,172,56
47380,-0.9314,-0.04932,-0.07861,19,21,172,56
47400,-0.81372,0.34448,0.18433,19,21,172,56
47420,-0.96802,-0.01001,-0.0820299999999999,19,21,172,56
47440,-0.97485,0.05835,0.0874,19,21,172,56
47460,-0.97803,0.05078,-0.07275,19,21,172,56
47480,-0.8938,0.35815,0.22339,19,21,172,56
47500,-0.97363,0.02612,-0.04492,19,21,172,56
47520,-0.96948,0.02002,-0.13745,19,21,172,56
47540,-0.9541,0.07202,-0.1665,19,21,172,56
47560,-0.97119,-0.0061,-0.03418,19,21,172,56
47580,-0.95801,0.04492,-0.14795,19,21,172,56
47600,-0.98535,-0.00635,-0.24512,19,21,172,56
47620,-0.90894,0.33789,0.26831,19,21,172,56
47640,-0.99243,0.04272,0.08008,19,21,172,56
47660,-0.95239,0.02124,-0.19995,19,21,172,56
47680,-0.92822,-0.10645,-0.15283,19,21,172,56
47700,-0.9602,0.021,-0.13379,19,21,172,56
47720,-0.92017,0.08154,0.07935,19,21,172,56
47740,-0.95727,0.13232,0.0188,19,21,172,56
47760,-0.96875,-0.03979,-0.02368,19,21,172,56
47780,-0.9602,0.0188,-0.06811,19,21,172,56
47800,-0.93262,-0.06396,-0.1731,19,21,172,56
47820,-0.91748,0.10254,-0.08789,19,21,172,56
47840,-0.9602,0.18921,0.13208,19,21,172,56
47860,-0.93848,-0.18506,-0.25098,19,21,172,56
47880,-0.94629,0.104,-0.10767,19,21,172,56
47900,-0.93579,0.2019,0.1474599999999999,19,21,172,56
47920,-0.7871100000000001,0.521,0.15796,19,21,172,56
47940,-0.91968,0.22095,-0.14624,19,21,172,56
47960,-0.96851,0.08252,-0.12549,19,21,172,56
47980,-0.96875,-0.03662,-0.11792,19,21,172,56
48000,-0.9419,0.05835,-0.11328,19,21,172,56
48020,-0.83765,0.46802,0.06274,19,21,172,56
48040,-0.96387,0.0354,-0.06372,19,21,172,56
48060,-0.94653,-0.13159,-0.14502,19,21,172,56
48080,-0.88355,0.2334,0.21826,19,21,172,56
48100,-0.94092,0.09204,0.15283,19,21,172,56
48120,-0.97998,-0.03296,-0.08008,19,21,172,56
48140,-0.94653,-0.14014,-0.11646,19,21,172,56
48160,-0.94507,0.24829,0.22315,19,21,172,56
48180,-0.97705,0.03955,0.15161,19,21,172,56
48200,-0.90552,-0.20898,-0.31152,19,21,172,56
48220,-0.87085,-0.17285,-0.0527299999999999,19,21,172,56
48240,-0.95142,-0.0564,-0.08325,19,21,172,56
48260,-0.96704,0.04102,-0.10254,19,21,172,56
48280,-0.93433,0.29199,0.13477,19,21,172,56
48300,-0.84131,0.38452,0.22339,19,21,172,56
48320,-0.95117,-0.10474,-0.19214,19,21,172,56
48340,-0.91504,0.24023,0.18677,19,21,172,56
48360,-0.95093,-0.12744,-0.20093,19,21,172,56
48380,-0.97217,-0.11401,0.00732,19,21,172,56
48400,-0.9436,-0.04712,-0.16919,19,21,172,56
48420,-0.948,-0.03125,-0.12329,19,21,172,56
48440,-0.9585,-0.08862,-0.18848,19,21,172,56
48460,-0.95923,0.06885,-0.02734,19,21,172,56
48480,-0.8779299999999999,0.35913,0.24243,19,21,172,56
48500,-0.98218,-0.04565,-0.11206,19,21,172,56
48520,-1.0059,-0.13013,-0.11816,19,21,172,56
48540,-0.95605,0.03272,0.10449,19,21,172,56
48560,-0.97705,-0.03955,-0.12134,19,21,172,56
48580,-0.92944,0.21533,0.1228,19,21,172,56
48600,-0.95483,0.1477099999999999,0.1853,20,41,186,66
48620,-0.95947,-0.06519,-0.18848,20,41,186,66
48640,-0.85864,0.41724,0.14893,20,41,186,66
48660,-0.97559,0.11646,-0.06445,20,41,186,66
48680,-0.8808600000000001,-0.07178,-0.13208,20,41,186,66
48700,-1.0027,-0.00732,0.03784,20,41,186,66
48720,-0.96045,-0.18115,-0.13745,20,41,186,66
48740,-0.90185,0.24634,-0.31763,20,41,186,66
48760,-0.9585,0.07471,-0.07666,20,41,186,66
48780,-0.97363,-0.0188,-0.07593,20,41,186,66
48800,-0.98218,0.23145,0.07178,20,41,186,66
48820,-0.95825,-0.03906,-0.09131,20,41,186,66
48840,-0.96851,0.04761,0.12256,20,41,186,66
48860,-0.94238,0.10913,-0.16699,20,41,186,66
48880,-0.95435,-0.01831,-0.18799,20,41,186,66
48900,-0.8928200000000001,0.25098,0.18677,20,41,186,66
48920,-0.93091,-0.14063,-0.104,20,41,186,66
48940,-0.96265,0.05981,-0.09668,20,41,186,66
48960,-0.9668,0.02344,-0.05933,20,41,186,66
48980,-0.97583,-0.12158,-0.11475,20,41,186,66
49000,-0.8588899999999999,0.5202600000000001,0.02686,20,41,186,66
49020,-0.9563,0.11914,-0.10498,20,41,186,66
49040,-0.93506,0.0861799999999999,0.19043,20,41,186,66
49060,-0.97144,-0.12012,-0.13648,20,41,186,66
49080,-0.90478,0.15063,-0.17261,20,41,186,66
49100,-0.95508,-0.01538,-0.06934,20,41,186,66
49120,-0.79199,0.54004,0.1709,20,41,186,66
49140,-0.96655,0.02856,-0.03272,20,41,186,66
49160,-0.96655,0.03223,0.07715,20,41,186,66
49180,-0.80225,0.4975600000000001,0.13648,20,41,186,66
49200,-0.96826,0.06348,0.23486,20,41,186,66
49220,-0.96997,0.04858,-0.0549299999999999,20,41,186,66
49240,-0.94141,0.1655299999999999,-0.09131,20,41,186,66
49260,-0.9646,-0.04834,-0.03711,20,41,186,66
49280,-0.93262,-0.06396,-0.1731,20,41,186,66
49300,-0.94263,-0.07422,-0.09204,20,41,186,66
49320,-0.96631,-0.0542,-0.07007,20,41,186,66
49340,-0.94922,0.17773,0.1543,20,41,186,66
49360,-0.96704,0.0603,-0.16992,20,41,186,66
49380,-0.94556,-0.09863,-0.10181,20,41,186,66
49400,-0.92114,-0.05249,-0.31665,20,41,186,66
49420,-0.93921,0.18115,-0.00342,20,41,186,66
49440,-0.97119,0.10547,0.07153,20,41,186,66
49460,-0.95239,0.02588,-0.2168,20,41,186,66
49480,-0.97388,0.00195,-0.08838,20,41,186,66
49500,-0.99316,0.18066,0.12354,20,41,186,66
49520,-0.9397,-0.09131,-0.13355,20,41,186,66
49540,-0.87256,0.37476,0.19824,20,41,186,66
49560,-0.92749,0.22437,0.14136,20,41,186,66
49580,-1.0056,-0.04883,-0.06445,20,41,186,66
49600,-1.0295,0.09277,-0.07349,20,41,186,66
49620,-0.96704,-0.02612,-0.16773,20,41,186,66
49640,-0.9773,0.01856,-0.10156,20,41,186,66
49660,-0.9707,-0.06885,-0.03223,20,41,186,66
49680,-0.9729,-0.00952,-0.04614,20,41,186,66
49700,-0.95605,0.12085,-0.02393,20,41,186,66
49720,-0.97705,0.04614,-0.02148,20,41,186,66
49740,-0.80298,0.5188,0.11914,20,41,186,66
49760,-0.96313,-0.04541,-0.09424,20,41,186,66
49780,-0.95801,-0.05689,-0.0896,20,41,186,66
49800,-0.96924,-0.09009,-0.02881,20,41,186,66
49820,-0.95386,-0.05689,-0.17969,20,41,186,66
49840,-0.92871,0.1626,-0.19995,20,41,186,66
49860,-0.94238,-0.00488,-0.12573,20,41,186,66
49880,-0.93652,0.20972,0.1687,20,41,186,66
49900,-0.9563,0.0861799999999999,-0.04346,20,41,186,66
49920,-0.9668,-0.03198,-0.07544,20,41,186,66
49940,-0.94458,0.14331,0.22339,20,41,186,66
49960,-0.93262,0.19653,0.12109,20,41,186,66
49980,-0.95996,0.01856,-0.07495,20,41,186,66
50000,-0.95874,-0.02466,-0.14331,20,41,186,66
50020,-0.93555,0.21924,0.16309,20,41,186,66
50040,-0.86035,0.01465,-0.34985,20,41,186,66
50060,-0.9165,-0.19775,-0.29907,20,41,186,66
50080,-0.92822,0.20215,0.1789599999999999,20,41,186,66
50100,-0.9563,-0.23633,-0.13867,20,41,186,66
50120,-0.97315,0.07349,-0.04834,20,41,186,66
50140,-0.9707,0.13867,0.12231,20,41,186,66
50160,-0.95093,0.09058,-0.13013,20,41,186,66
50180,-0.90234,0.22046,0.17407,20,41,186,66
50200,-0.98706,-0.05176,-0.20435,20,41,186,66
50220,-0.96899,0.02051,0.12256,20,41,186,66
50240,-0.9956,0.13257,-0.14331,20,41,186,66
50260,-0.96533,-0.07812,-0.03418,20,41,186,66
50280,-0.9519,-0.07495,-0.18799,20,41,186,66
50300,-0.92578,-0.20898,-0.15747,20,41,186,66
50320,-0.95264,0.14209,0.19678,20,41,186,66
50340,-0.95605,0.18335,0.17285,20,41,186,66
50360,-0.96045,0.10547,0.2207,20,41,186,66
50380,-0.93799,0.11475,0.09277,20,41,186,66
50400,-0.85864,0.41724,0.14893,20,41,186,66
50420,-0.95654,0.18701,-0.16602,20,41,186,66
50440,-0.92114,0.17261,0.13599,20,41,186,66
50460,-0.95825,-0.10327,-0.09473,20,41,186,66
50480,-0.96069,0.12964,0.16504,20,41,186,66
50500,-0.95093,0.09058,-0.13013,20,41,186,66
50520,-0.96704,0.07105,0.09375,20,41,186,66
50540,-0.95679,-0.02026,-0.11597,20,41,186,66
50560,-0.93628,-0.03784,-0.04517,20,41,186,66
50580,-0.9331,-0.1333,0.22803,20,41,186,66
50600,-0.79614,0.52148,0.1167,20,41,186,66
50620,-0.95581,0.14917,0.09375,20,41,186,66
50640,-0.96655,0.1023,0.14282,20,41,186,66
50660,-0.96875,0.0529799999999999,0.02832,20,41,186,66
50680,-0.95605,-0.02197,-0.09741,20,41,186,66
50700,-0.94605,0.1311,-0.03125,20,41,186,66
50720,-0.94849,0.07739,0.24976,20,41,186,66
50740,-0.9419,0.18506,0.14526,20,41,186,66
50760,-0.94067,0.2456,-0.01172,20,41,186,66
50780,-0.97192,-0.05127,-0.02783,20,41,186,66
50800,-0.94263,0.10205,-0.12671,20,41,186,66
50820,-0.94849,0.07617,0.05103,20,41,186,66
50840,-0.94946,0.02002,-0.18066,20,41,186,66
50860,-0.95337,-0.15454,-0.0136699999999999,20,41,186,66
50880,-0.92969,0.19263,-0.16602,20,41,186,66
50900,-0.98804,0.07397,0.13355,20,41,186,66
50920,-0.9519,0.06006,-0.1001,20,41,186,66
50940,-0.9231,-0.01343,-0.16089,20,41,186,66
50960,-0.9939,0.14795,0.26685,20,41,186,66
50980,-0.97363,0.12354,0.11816,20,41,186,66
51000,-0.97632,0.08154,-0.06421,20,41,186,66
51020,-0.94238,0.20508,0.14111,20,41,186,66
51040,-0.95605,-0.08935,-0.10815,20,41,186,66
51060,-0.95581,-0.12817,-0.20727,20,41,186,66
51080,-0.96704,-0.02612,-0.16773,20,41,186,66
51100,-0.95898,0.09033,-0.11768,20,41,186,66
51120,-0.93652,-0.08276,-0.1853,21,53,156,74
51140,-0.8779299999999999,0.36255,0.20801,21,53,156,74
51160,-0.8798799999999999,0.06494,-0.13892,21,53,156,74
51180,-0.94263,-0.05933,-0.12085,21,53,156,74
51200,-0.96802,0.10205,0.03516,21,53,156,74
51220,-0.94141,-0.28101,-0.04394,21,53,156,74
51240,-0.95972,-0.12061,-0.02441,21,53,156,74
51260,-0.94995,0.03467,-0.11792,21,53,156,74
51280,-0.93408,0.14404,-0.02881,21,53,156,74
51300,-1.1775,-0.02441,-0.41699,21,53,156,74
51320,-0.90332,0.35571,0.18066,21,53,156,74
51340,-0.95703,0.20923,-0.00317,21,53,156,74
51360,-0.93603,-0.0061,0.0078099999999999,21,53,156,74
51380,-0.8606,0.42798,0.16138,21,53,156,74
51400,-0.96558,0.16895,0.09863,21,53,156,74
51420,-0.97827,-0.01123,-0.07495,21,53,156,74
51440,-0.9563,0.05371,0.0061,21,53,156,74
51460,-0.90234,0.26587,0.15137,21,53,156,74
51480,-0.96313,-0.0581,-0.10132,21,53,156,74
